===BEGIN_METADATA===
"This CSV contains gyroscope, accelerometer, and magnetometer data synced with the test named below."
Test Name: 2026-07-07_145646_01,yyyy-mm-dd_hhmmss_{probe#/nano_id}
Calibrations: (not implemented yet)
===END_METADATA===
===BEGIN_DATA===
Time (sec),Gyro X,Gyro Y,Gyro Z,Accel X,Accel Y,Accel Z,Mag X,Mag Y,Mag Z,Processed_Time
0.000258,+0000005,-0000015,-0000012,+0000046,-0000066,+0004151,-0000774,+0000490,-0002320,14:56:50.223342
0.000588,+0000011,+0000005,+0000001,+0000060,-0000093,+0004160,-0000774,+0000490,-0002320,14:56:50.223342
0.000921,-0000001,-0000011,-0000015,+0000054,-0000089,+0004144,-0000774,+0000490,-0002320,14:56:50.223342
0.001257,+0000010,-0000020,-0000002,+0000057,-0000117,+0004153,-0000794,+0000490,-0002318,14:56:50.223342
0.001587,+0000017,-0000037,-0000002,+0000066,-0000096,+0004162,-0000794,+0000490,-0002318,14:56:50.223342
0.001920,+0000014,-0000033,-0000012,+0000034,-0000087,+0004144,-0000794,+0000490,-0002318,14:56:50.223342
0.002253,+0000002,-0000016,-0000004,+0000054,-0000088,+0004149,-0000782,+0000506,-0002323,14:56:50.223342
0.002586,-0000003,+0000002,-0000005,+0000062,-0000064,+0004162,-0000782,+0000506,-0002323,14:56:50.223342
0.002919,+0000019,-0000028,-0000019,+0000020,-0000087,+0004129,-0000782,+0000506,-0002323,14:56:50.223342
0.003253,+0000006,-0000029,+0000000,+0000059,-0000092,+0004171,-0000776,+0000476,-0002315,14:56:50.223342
0.003585,+0000030,-0000034,+0000004,+0000055,-0000098,+0004159,-0000776,+0000476,-0002315,14:56:50.223342
0.003918,+0000019,-0000030,-0000014,+0000037,-0000078,+0004152,-0000776,+0000476,-0002315,14:56:50.223342
0.004253,+0000003,-0000008,-0000011,+0000046,-0000086,+0004163,-0000772,+0000486,-0002307,14:56:50.223342
0.004584,-0000006,-0000016,-0000005,+0000033,-0000082,+0004153,-0000772,+0000486,-0002307,14:56:50.223342
0.004917,+0000032,-0000018,-0000003,+0000053,-0000087,+0004154,-0000772,+0000486,-0002307,14:56:50.223342
0.005253,+0000016,-0000031,-0000013,+0000068,-0000065,+0004165,-0000778,+0000480,-0002336,14:56:50.223342
0.005583,+0000019,-0000023,-0000002,+0000048,-0000100,+0004170,-0000778,+0000480,-0002336,14:56:50.223342
0.005916,+0000015,-0000020,-0000021,+0000055,-0000112,+0004148,-0000778,+0000480,-0002336,14:56:50.223342
0.006253,+0000019,-0000032,-0000012,+0000035,-0000080,+0004151,-0000776,+0000480,-0002315,14:56:50.223342
0.006582,-0000006,-0000010,-0000002,+0000043,-0000083,+0004166,-0000776,+0000480,-0002315,14:56:50.223342
0.006915,+0000010,-0000019,+0000009,+0000036,-0000097,+0004179,-0000776,+0000480,-0002315,14:56:50.223342
0.007253,+0000016,-0000030,+0000001,+0000042,-0000076,+0004155,-0000786,+0000488,-0002307,14:56:50.223342
0.007581,+0000025,-0000035,-0000018,+0000039,-0000076,+0004144,-0000786,+0000488,-0002307,14:56:50.224343
0.007914,+0000021,-0000024,+0000000,+0000039,-0000081,+0004149,-0000786,+0000488,-0002307,14:56:50.224343
0.008252,+0000009,-0000016,-0000025,+0000035,-0000080,+0004173,-0000772,+0000476,-0002321,14:56:50.224343
0.008580,+0000006,+0000006,-0000008,+0000033,-0000081,+0004155,-0000772,+0000476,-0002321,14:56:50.224343
0.008913,+0000019,-0000023,-0000011,+0000075,-0000080,+0004144,-0000772,+0000476,-0002321,14:56:50.224343
0.009251,+0000003,-0000031,-0000010,+0000057,-0000088,+0004170,-0000780,+0000484,-0002339,14:56:50.228344
0.009581,+0000021,-0000034,-0000003,+0000041,-0000090,+0004159,-0000780,+0000484,-0002339,14:56:50.228344
0.009914,+0000030,-0000026,-0000027,+0000047,-0000098,+0004149,-0000780,+0000484,-0002339,14:56:50.228344
0.010601,-0000008,-0000007,+0000000,+0000060,-0000093,+0004145,-0000772,+0000482,-0002329,14:56:50.228344
0.010911,+0000011,-0000012,-0000003,+0000048,-0000098,+0004134,-0000772,+0000482,-0002329,14:56:50.228344
0.011361,+0000018,-0000026,-0000016,+0000050,-0000098,+0004154,-0000772,+0000482,-0002329,14:56:50.228344
0.011577,+0000025,-0000045,+0000003,+0000050,-0000098,+0004154,-0000780,+0000480,-0002320,14:56:50.228344
0.011912,-0000002,-0000013,-0000005,+0000039,-0000093,+0004159,-0000780,+0000480,-0002320,14:56:50.228344
0.012249,-0000003,-0000013,-0000002,+0000054,-0000104,+0004162,-0000780,+0000480,-0002320,14:56:50.228344
0.012576,+0000011,-0000014,+0000001,+0000053,-0000104,+0004165,-0000790,+0000460,-0002289,14:56:50.228344
0.012910,+0000011,-0000037,-0000013,+0000041,-0000095,+0004145,-0000790,+0000460,-0002289,14:56:50.228344
0.013248,+0000017,-0000024,+0000008,+0000060,-0000100,+0004145,-0000790,+0000460,-0002289,14:56:50.228344
0.013576,+0000021,-0000042,-0000025,+0000057,-0000107,+0004142,-0000790,+0000476,-0002302,14:56:50.228344
0.013908,+0000013,-0000018,-0000008,+0000042,-0000096,+0004139,-0000790,+0000476,-0002302,14:56:50.228344
0.014248,+0000016,-0000008,-0000002,+0000045,-0000088,+0004129,-0000790,+0000476,-0002302,14:56:50.228344
0.014575,+0000006,-0000019,-0000008,+0000035,-0000082,+0004167,-0000784,+0000484,-0002315,14:56:50.275399
0.014908,+0000025,-0000046,-0000007,+0000048,-0000089,+0004173,-0000784,+0000484,-0002315,14:56:50.275399
0.015250,+0000018,-0000021,-0000013,+0000040,-0000091,+0004165,-0000784,+0000484,-0002315,14:56:50.275399
0.015578,+0000002,+0000003,-0000004,+0000044,-0000087,+0004130,-0000786,+0000488,-0002317,14:56:50.275399
0.016046,+0000018,-0000018,-0000007,+0000062,-0000095,+0004140,-0000786,+0000488,-0002317,14:56:50.275399
0.016418,+0000015,-0000031,-0000008,+0000056,-0000095,+0004136,-0000786,+0000488,-0002317,14:56:50.275399
0.016575,+0000015,-0000031,-0000008,+0000056,-0000095,+0004136,-0000784,+0000476,-0002332,14:56:50.275399
0.016907,+0000024,-0000025,-0000012,+0000069,-0000081,+0004148,-0000784,+0000476,-0002332,14:56:50.275399
0.017245,+0000016,-0000015,-0000011,+0000057,-0000101,+0004138,-0000784,+0000476,-0002332,14:56:50.275399
0.017572,+0000005,-0000023,-0000012,+0000050,-0000090,+0004125,-0000778,+0000468,-0002324,14:56:50.275399
0.017904,+0000003,-0000018,-0000013,+0000035,-0000095,+0004137,-0000778,+0000468,-0002324,14:56:50.275399
0.018237,+0000010,-0000011,-0000007,+0000034,-0000083,+0004157,-0000778,+0000468,-0002324,14:56:50.275399
0.018705,+0000007,-0000021,+0000000,+0000057,-0000102,+0004144,-0000790,+0000472,-0002337,14:56:50.275399
0.018948,+0000019,-0000026,-0000005,+0000051,-0000084,+0004155,-0000790,+0000472,-0002337,14:56:50.275399
0.019244,+0000007,-0000027,-0000004,+0000053,-0000095,+0004160,-0000790,+0000472,-0002337,14:56:50.275399
0.019570,+0000016,-0000034,-0000013,+0000050,-0000080,+0004156,-0000792,+0000488,-0002333,14:56:50.275399
0.019903,+0000014,+0000000,-0000008,+0000041,-0000084,+0004166,-0000792,+0000488,-0002333,14:56:50.275399
0.020235,+0000002,-0000015,-0000010,+0000047,-0000070,+0004161,-0000792,+0000488,-0002333,14:56:50.275399
0.020568,+0000003,-0000018,-0000010,+0000038,-0000101,+0004144,-0000778,+0000480,-0002334,14:56:50.275399
0.020907,+0000016,-0000032,-0000019,+0000045,-0000074,+0004149,-0000778,+0000480,-0002334,14:56:50.275399
0.021234,+0000008,-0000021,+0000005,+0000053,-0000064,+0004178,-0000778,+0000480,-0002334,14:56:50.275399
0.021567,+0000010,-0000023,-0000018,+0000041,-0000076,+0004155,-0000786,+0000480,-0002328,14:56:50.275399
0.021900,+0000013,-0000026,-0000007,+0000057,-0000085,+0004159,-0000786,+0000480,-0002328,14:56:50.275399
0.022233,+0000008,-0000006,-0000002,+0000054,-0000086,+0004156,-0000786,+0000480,-0002328,14:56:50.275399
0.022566,+0000005,-0000019,-0000010,+0000042,-0000078,+0004144,-0000782,+0000492,-0002313,14:56:50.275399
0.022899,+0000022,-0000037,-0000010,+0000044,-0000096,+0004152,-0000782,+0000492,-0002313,14:56:50.275399
0.023232,+0000011,-0000037,-0000015,+0000028,-0000086,+0004144,-0000782,+0000492,-0002313,14:56:50.275399
0.023565,+0000024,-0000038,-0000010,+0000040,-0000094,+0004148,-0000784,+0000480,-0002329,14:56:50.275399
0.023898,+0000006,-0000002,-0000016,+0000026,-0000092,+0004162,-0000784,+0000480,-0002329,14:56:50.275399
0.024231,+0000008,-0000008,+0000003,+0000045,-0000098,+0004153,-0000784,+0000480,-0002329,14:56:50.275399
0.024564,+0000011,-0000024,-0000005,+0000056,-0000090,+0004156,-0000766,+0000482,-0002316,14:56:50.275399
0.024897,+0000031,-0000045,-0000011,+0000042,-0000102,+0004148,-0000766,+0000482,-0002316,14:56:50.275399
0.025230,+0000011,-0000029,-0000011,+0000047,-0000083,+0004149,-0000766,+0000482,-0002316,14:56:50.275399
0.025563,+0000021,-0000023,-0000010,+0000045,-0000107,+0004168,-0000780,+0000482,-0002333,14:56:50.275399
0.025896,+0000002,-0000002,-0000002,+0000040,-0000092,+0004140,-0000780,+0000482,-0002333,14:56:50.275399
0.026229,+0000005,-0000006,-0000002,+0000053,-0000079,+0004159,-0000780,+0000482,-0002333,14:56:50.275399
0.026562,+0000018,-0000024,-0000015,+0000036,-0000098,+0004159,-0000774,+0000484,-0002333,14:56:50.275399
0.026896,+0000027,-0000027,-0000007,+0000038,-0000074,+0004136,-0000774,+0000484,-0002333,14:56:50.275399
0.027228,+0000016,-0000032,-0000019,+0000062,-0000079,+0004152,-0000774,+0000484,-0002333,14:56:50.275399
0.027561,+0000006,-0000018,-0000004,+0000059,-0000110,+0004150,-0000768,+0000484,-0002327,14:56:50.275399
0.027894,+0000007,-0000016,-0000016,+0000073,-0000074,+0004165,-0000768,+0000484,-0002327,14:56:50.275399
0.028227,+0000010,-0000014,-0000005,+0000034,-0000083,+0004160,-0000768,+0000484,-0002327,14:56:50.275399
0.028560,+0000016,-0000042,+0000000,+0000062,-0000098,+0004148,-0000782,+0000474,-0002327,14:56:50.275399
0.028893,+0000022,-0000016,-0000005,+0000066,-0000100,+0004149,-0000782,+0000474,-0002327,14:56:50.275399
0.029226,+0000027,-0000027,-0000008,+0000058,-0000079,+0004127,-0000782,+0000474,-0002327,14:56:50.275399
0.029559,+0000014,-0000021,-0000008,+0000044,-0000101,+0004118,-0000766,+0000478,-0002339,14:56:50.275399
0.029892,+0000014,-0000013,-0000002,+0000057,-0000087,+0004148,-0000766,+0000478,-0002339,14:56:50.275399
0.030225,+0000004,-0000018,-0000007,+0000056,-0000093,+0004144,-0000766,+0000478,-0002339,14:56:50.275399
0.030558,+0000022,-0000015,-0000015,+0000052,-0000100,+0004148,-0000768,+0000498,-0002351,14:56:50.275399
0.030891,+0000019,-0000034,-0000007,+0000058,-0000086,+0004151,-0000768,+0000498,-0002351,14:56:50.275399
0.031224,+0000021,-0000018,-0000014,+0000044,-0000087,+0004142,-0000768,+0000498,-0002351,14:56:50.275399
0.031557,+0000011,-0000014,-0000014,+0000042,-0000083,+0004141,-0000776,+0000468,-0002337,14:56:50.275399
0.031890,+0000005,-0000008,-0000010,+0000046,-0000111,+0004153,-0000776,+0000468,-0002337,14:56:50.275399
0.032223,-0000001,-0000015,+0000000,+0000036,-0000071,+0004160,-0000776,+0000468,-0002337,14:56:50.275399
0.032556,+0000013,-0000018,-0000008,+0000044,-0000076,+0004147,-0000784,+0000468,-0002325,14:56:50.275399
0.032889,+0000007,-0000037,-0000016,+0000030,-0000084,+0004148,-0000784,+0000468,-0002325,14:56:50.275399
0.033222,+0000022,-0000026,-0000021,+0000039,-0000130,+0004166,-0000784,+0000468,-0002325,14:56:50.275399
0.033555,+0000008,-0000010,+0000003,+0000042,-0000091,+0004165,-0000782,+0000462,-0002342,14:56:50.275399
0.033888,+0000003,-0000017,-0000008,+0000031,-0000095,+0004135,-0000782,+0000462,-0002342,14:56:50.275399
0.034221,+0000016,-0000016,-0000007,+0000051,-0000091,+0004149,-0000782,+0000462,-0002342,14:56:50.275399
0.034554,+0000027,-0000037,-0000018,+0000066,-0000079,+0004152,-0000784,+0000482,-0002351,14:56:50.275399
0.034887,+0000017,-0000036,-0000004,+0000041,-0000090,+0004144,-0000784,+0000482,-0002351,14:56:50.275399
0.035220,+0000025,-0000032,-0000007,+0000043,-0000099,+0004142,-0000784,+0000482,-0002351,14:56:50.275399
0.035553,+0000017,-0000034,-0000018,+0000054,-0000086,+0004147,-0000774,+0000468,-0002333,14:56:50.275399
0.035886,+0000008,-0000013,+0000007,+0000045,-0000096,+0004149,-0000774,+0000468,-0002333,14:56:50.275399
0.036219,+0000019,-0000015,-0000008,+0000040,-0000094,+0004149,-0000774,+0000468,-0002333,14:56:50.275399
0.036552,+0000014,-0000037,-0000013,+0000052,-0000091,+0004160,-0000774,+0000472,-0002331,14:56:50.275399
0.036885,+0000023,-0000040,-0000007,+0000049,-0000093,+0004162,-0000774,+0000472,-0002331,14:56:50.275399
0.037218,+0000017,-0000023,-0000018,+0000037,-0000085,+0004154,-0000774,+0000472,-0002331,14:56:50.275399
0.037551,+0000024,-0000024,-0000013,+0000044,-0000101,+0004155,-0000768,+0000470,-0002331,14:56:50.275399
0.037884,+0000003,-0000024,-0000003,+0000034,-0000080,+0004159,-0000768,+0000470,-0002331,14:56:50.275399
0.038217,+0000008,-0000026,-0000002,+0000055,-0000074,+0004155,-0000768,+0000470,-0002331,14:56:50.275399
0.038550,+0000019,-0000032,-0000005,+0000046,-0000077,+0004137,-0000782,+0000480,-0002310,14:56:50.275399
0.038883,+0000020,-0000034,-0000008,+0000029,-0000097,+0004149,-0000782,+0000480,-0002310,14:56:50.275399
0.039216,+0000027,-0000029,-0000013,+0000069,-0000065,+0004151,-0000782,+0000480,-0002310,14:56:50.275399
0.039549,+0000005,-0000005,-0000016,+0000050,-0000108,+0004164,-0000766,+0000460,-0002346,14:56:50.275399
0.039882,+0000017,-0000010,-0000003,+0000061,-0000082,+0004149,-0000766,+0000460,-0002346,14:56:50.275399
0.040215,+0000008,-0000028,+0000004,+0000058,-0000083,+0004168,-0000766,+0000460,-0002346,14:56:50.275399
0.040548,+0000019,-0000029,-0000013,+0000054,-0000094,+0004170,-0000774,+0000478,-0002326,14:56:50.275399
0.040881,+0000025,-0000047,-0000008,+0000072,-0000061,+0004146,-0000774,+0000478,-0002326,14:56:50.275399
0.041214,+0000013,-0000016,-0000021,+0000044,-0000106,+0004162,-0000774,+0000478,-0002326,14:56:50.275399
0.041547,-0000003,-0000011,+0000006,+0000027,-0000075,+0004164,-0000772,+0000476,-0002321,14:56:50.275399
0.041880,+0000021,-0000016,-0000008,+0000056,-0000086,+0004140,-0000772,+0000476,-0002321,14:56:50.275399
0.042213,+0000017,-0000035,-0000008,+0000048,-0000090,+0004153,-0000772,+0000476,-0002321,14:56:50.275399
0.042546,+0000014,-0000027,-0000010,+0000065,-0000083,+0004161,-0000764,+0000482,-0002327,14:56:50.275399
0.042879,+0000016,-0000020,-0000023,+0000047,-0000101,+0004152,-0000764,+0000482,-0002327,14:56:50.275399
0.043212,+0000003,-0000012,+0000009,+0000045,-0000083,+0004147,-0000764,+0000482,-0002327,14:56:50.275399
0.043545,+0000013,-0000021,-0000014,+0000045,-0000077,+0004142,-0000774,+0000482,-0002315,14:56:50.275399
0.043878,+0000010,-0000026,-0000016,+0000040,-0000088,+0004156,-0000774,+0000482,-0002315,14:56:50.275399
0.044211,+0000014,-0000015,+0000004,+0000033,-0000092,+0004148,-0000774,+0000482,-0002315,14:56:50.275399
0.044544,+0000028,-0000031,-0000008,+0000040,-0000078,+0004168,-0000770,+0000482,-0002327,14:56:50.275399
0.044877,+0000025,-0000027,-0000011,+0000051,-0000090,+0004156,-0000770,+0000482,-0002327,14:56:50.276409
0.045210,+0000001,-0000018,-0000013,+0000053,-0000095,+0004156,-0000770,+0000482,-0002327,14:56:50.276409
0.045543,+0000016,-0000016,-0000011,+0000061,-0000097,+0004159,-0000772,+0000478,-0002342,14:56:50.276409
0.045876,+0000007,-0000018,+0000001,+0000050,-0000085,+0004148,-0000772,+0000478,-0002342,14:56:50.276409
0.046209,+0000021,-0000015,-0000018,+0000049,-0000077,+0004146,-0000772,+0000478,-0002342,14:56:50.276409
0.046542,+0000013,-0000036,-0000005,+0000055,-0000083,+0004148,-0000784,+0000476,-0002341,14:56:50.276409
0.046875,+0000011,-0000023,-0000013,+0000063,-0000086,+0004149,-0000784,+0000476,-0002341,14:56:50.276409
0.047208,+0000014,-0000018,-0000019,+0000053,-0000088,+0004146,-0000784,+0000476,-0002341,14:56:50.276409
0.047541,+0000008,-0000012,+0000007,+0000048,-0000096,+0004147,-0000776,+0000478,-0002315,14:56:50.276409
0.047874,+0000010,-0000024,-0000015,+0000055,-0000097,+0004166,-0000776,+0000478,-0002315,14:56:50.276409
0.048207,+0000029,-0000039,-0000004,+0000029,-0000084,+0004143,-0000776,+0000478,-0002315,14:56:50.276409
0.048540,+0000028,-0000036,-0000013,+0000049,-0000097,+0004143,-0000782,+0000500,-0002331,14:56:50.276409
0.048873,+0000019,-0000023,-0000005,+0000055,-0000071,+0004138,-0000782,+0000500,-0002331,14:56:50.276409
0.049206,+0000000,-0000008,-0000013,+0000039,-0000107,+0004150,-0000782,+0000500,-0002331,14:56:50.276409
0.049539,+0000013,-0000005,-0000014,+0000038,-0000086,+0004144,-0000784,+0000482,-0002333,14:56:50.276409
0.049872,+0000017,-0000020,-0000010,+0000036,-0000085,+0004153,-0000784,+0000482,-0002333,14:56:50.276409
0.050205,+0000010,-0000032,+0000003,+0000052,-0000096,+0004141,-0000784,+0000482,-0002333,14:56:50.276409
0.050538,+0000030,-0000030,-0000016,+0000035,-0000092,+0004150,-0000790,+0000466,-0002339,14:56:50.276409
0.050871,+0000022,-0000040,-0000010,+0000033,-0000092,+0004150,-0000790,+0000466,-0002339,14:56:50.276409
0.051204,+0000008,-0000005,+0000006,+0000042,-0000104,+0004147,-0000790,+0000466,-0002339,14:56:50.278398
0.051537,-0000004,+0000006,+0000006,+0000033,-0000089,+0004162,-0000786,+0000480,-0002347,14:56:50.278398
0.051870,+0000007,-0000018,-0000021,+0000052,-0000108,+0004153,-0000786,+0000480,-0002347,14:56:50.278398
0.052203,+0000027,-0000039,-0000005,+0000066,-0000108,+0004153,-0000786,+0000480,-0002347,14:56:50.278398
0.052536,+0000010,-0000035,-0000007,+0000041,-0000083,+0004141,-0000772,+0000488,-0002354,14:56:50.278398
0.053135,-0000001,-0000007,-0000005,+0000043,-0000089,+0004139,-0000772,+0000488,-0002354,14:56:50.278398
0.053316,+0000027,-0000035,-0000027,+0000043,-0000089,+0004139,-0000772,+0000488,-0002354,14:56:50.278398
0.053535,-0000023,-0000007,+0000012,+0000044,-0000096,+0004142,-0000792,+0000488,-0002298,14:56:50.278398
0.053868,+0000035,-0000032,-0000024,+0000060,-0000074,+0004150,-0000792,+0000488,-0002298,14:56:50.278398
0.054201,+0000018,-0000040,+0000001,+0000041,-0000075,+0004147,-0000792,+0000488,-0002298,14:56:50.278398
0.054534,+0000017,-0000027,-0000010,+0000041,-0000102,+0004158,-0000778,+0000482,-0002337,14:56:50.278398
0.054867,+0000005,-0000010,-0000013,+0000043,-0000097,+0004160,-0000778,+0000482,-0002337,14:56:50.278398
0.055200,+0000011,-0000015,+0000003,+0000036,-0000076,+0004144,-0000778,+0000482,-0002337,14:56:50.278398
0.055533,+0000000,-0000024,-0000011,+0000022,-0000091,+0004127,-0000770,+0000468,-0002324,14:56:50.278398
0.055866,+0000024,-0000029,-0000015,+0000052,-0000092,+0004141,-0000770,+0000468,-0002324,14:56:50.278398
0.056199,+0000014,-0000039,-0000013,+0000043,-0000072,+0004147,-0000770,+0000468,-0002324,14:56:50.278398
0.056532,+0000028,-0000018,-0000008,+0000055,-0000067,+0004155,-0000790,+0000462,-0002320,14:56:50.278398
0.056865,-0000002,-0000018,-0000011,+0000054,-0000077,+0004165,-0000790,+0000462,-0002320,14:56:50.278398
0.057198,+0000013,-0000016,-0000013,+0000055,-0000094,+0004157,-0000790,+0000462,-0002320,14:56:50.278398
0.057531,+0000011,-0000003,-0000003,+0000052,-0000076,+0004156,-0000780,+0000462,-0002331,14:56:50.278398
0.057864,+0000010,-0000036,-0000019,+0000068,-0000096,+0004152,-0000780,+0000462,-0002331,14:56:50.278398
0.058197,+0000024,-0000040,-0000018,+0000045,-0000091,+0004158,-0000780,+0000462,-0002331,14:56:50.278398
0.058530,+0000011,-0000027,-0000012,+0000039,-0000103,+0004148,-0000788,+0000478,-0002334,14:56:50.278398
0.058863,+0000013,-0000019,-0000010,+0000051,-0000096,+0004137,-0000788,+0000478,-0002334,14:56:50.278398
0.059196,+0000007,-0000014,-0000005,+0000049,-0000082,+0004138,-0000788,+0000478,-0002334,14:56:50.278398
0.059529,+0000010,-0000016,-0000008,+0000060,-0000086,+0004136,-0000764,+0000478,-0002334,14:56:50.278398
0.059862,+0000017,-0000032,+0000001,+0000050,-0000094,+0004152,-0000764,+0000478,-0002334,14:56:50.278398
0.060195,+0000008,-0000042,-0000013,+0000031,-0000098,+0004156,-0000764,+0000478,-0002334,14:56:50.278398
0.060528,+0000014,-0000023,-0000007,+0000055,-0000092,+0004138,-0000760,+0000474,-0002324,14:56:50.278398
0.060861,+0000010,-0000028,-0000018,+0000056,-0000104,+0004146,-0000760,+0000474,-0002324,14:56:50.278398
0.061195,+0000000,-0000011,-0000005,+0000046,-0000103,+0004146,-0000760,+0000474,-0002324,14:56:50.325010
0.061527,+0000013,-0000013,-0000006,+0000057,-0000098,+0004168,-0000774,+0000488,-0002324,14:56:50.325010
0.061860,+0000018,-0000037,-0000018,+0000057,-0000100,+0004123,-0000774,+0000488,-0002324,14:56:50.325010
0.062556,+0000004,-0000021,-0000008,+0000049,-0000078,+0004169,-0000774,+0000488,-0002324,14:56:50.325010
0.062927,+0000008,-0000008,+0000001,+0000066,-0000103,+0004163,-0000768,+0000484,-0002293,14:56:50.325010
0.063271,+0000011,-0000015,-0000002,+0000049,-0000099,+0004164,-0000768,+0000484,-0002293,14:56:50.325010
0.063602,+0000007,-0000021,-0000010,+0000055,-0000079,+0004151,-0000768,+0000484,-0002293,14:56:50.325010
0.063859,+0000024,-0000035,-0000005,+0000057,-0000094,+0004164,-0001024,+0000480,-0002316,14:56:50.325010
0.064191,+0000029,-0000053,-0000016,+0000059,-0000083,+0004154,-0001024,+0000480,-0002316,14:56:50.325010
0.064524,+0000005,-0000026,-0000011,+0000054,-0000079,+0004156,-0001024,+0000480,-0002316,14:56:50.325010
0.064858,+0000016,-0000013,-0000010,+0000031,-0000067,+0004162,-0000776,+0000462,-0002317,14:56:50.325010
0.065190,+0000021,-0000021,-0000005,+0000038,-0000096,+0004166,-0000776,+0000462,-0002317,14:56:50.325010
0.065523,+0000011,-0000032,-0000010,+0000050,-0000092,+0004144,-0000776,+0000462,-0002317,14:56:50.326019
0.065857,+0000019,-0000029,-0000003,+0000058,-0000075,+0004164,-0000780,+0000480,-0002323,14:56:50.326019
0.066189,+0000018,-0000037,-0000010,+0000048,-0000083,+0004153,-0000780,+0000480,-0002323,14:56:50.326019
0.066522,+0000014,-0000016,-0000008,+0000058,-0000077,+0004146,-0000780,+0000480,-0002323,14:56:50.326019
0.066855,+0000005,-0000010,-0000005,+0000051,-0000085,+0004159,-0000766,+0000472,-0002318,14:56:50.326019
0.067188,-0000002,-0000005,+0000000,+0000038,-0000091,+0004147,-0000766,+0000472,-0002318,14:56:50.326019
0.067521,+0000027,-0000021,-0000016,+0000037,-0000083,+0004136,-0000766,+0000472,-0002318,14:56:50.326019
0.067854,+0000019,-0000036,-0000002,+0000046,-0000104,+0004158,-0000782,+0000474,-0002328,14:56:50.326019
0.068187,+0000022,-0000039,-0000019,+0000045,-0000089,+0004147,-0000782,+0000474,-0002328,14:56:50.326019
0.068520,+0000018,-0000010,-0000007,+0000026,-0000096,+0004169,-0000782,+0000474,-0002328,14:56:50.326019
0.068853,+0000007,-0000020,-0000013,+0000066,-0000084,+0004148,-0000784,+0000482,-0002328,14:56:50.326019
0.069186,+0000007,-0000010,-0000004,+0000057,-0000074,+0004167,-0000784,+0000482,-0002328,14:56:50.326019
0.069519,+0000013,-0000036,+0000001,+0000055,-0000114,+0004162,-0000784,+0000482,-0002328,14:56:50.326019
0.069852,+0000024,-0000034,-0000007,+0000050,-0000094,+0004150,-0000784,+0000470,-0002336,14:56:50.326019
0.070185,+0000036,-0000010,-0000011,+0000048,-0000080,+0004160,-0000784,+0000470,-0002336,14:56:50.326019
0.070518,+0000022,-0000013,-0000013,+0000054,-0000110,+0004161,-0000784,+0000470,-0002336,14:56:50.326019
0.070851,+0000011,-0000018,-0000020,+0000061,-0000081,+0004143,-0000770,+0000462,-0002329,14:56:50.326019
0.071184,+0000000,-0000019,+0000003,+0000048,-0000086,+0004156,-0000770,+0000462,-0002329,14:56:50.326019
0.071517,+0000016,-0000029,-0000011,+0000041,-0000085,+0004163,-0000770,+0000462,-0002329,14:56:50.326019
0.071850,+0000038,-0000037,-0000010,+0000055,-0000086,+0004149,-0000784,+0000482,-0002338,14:56:50.326019
0.072183,+0000014,-0000035,-0000016,+0000033,-0000094,+0004150,-0000784,+0000482,-0002338,14:56:50.326019
0.072516,+0000010,-0000018,-0000013,+0000038,-0000080,+0004144,-0000784,+0000482,-0002338,14:56:50.326019
0.072849,+0000005,-0000015,+0000000,+0000046,-0000081,+0004134,-0000796,+0000454,-0002339,14:56:50.326019
0.073182,+0000017,-0000018,-0000005,+0000035,-0000093,+0004134,-0000796,+0000454,-0002339,14:56:50.326019
0.073515,+0000005,-0000023,-0000008,+0000022,-0000082,+0004169,-0000796,+0000454,-0002339,14:56:50.326019
0.073848,+0000029,-0000037,-0000011,+0000044,-0000097,+0004144,-0000772,+0000456,-0002338,14:56:50.326019
0.074181,+0000010,-0000031,-0000008,+0000061,-0000100,+0004138,-0000772,+0000456,-0002338,14:56:50.326019
0.074514,+0000005,-0000010,-0000008,+0000040,-0000089,+0004158,-0000772,+0000456,-0002338,14:56:50.326019
0.074847,+0000016,-0000016,-0000011,+0000057,-0000106,+0004165,-0000786,+0000494,-0002336,14:56:50.326019
0.075180,+0000004,-0000019,-0000012,+0000039,-0000092,+0004159,-0000786,+0000494,-0002336,14:56:50.326019
0.075513,+0000030,-0000042,-0000010,+0000027,-0000092,+0004144,-0000786,+0000494,-0002336,14:56:50.326019
0.075846,+0000020,-0000032,-0000013,+0000045,-0000075,+0004154,-0000772,+0000448,-0002299,14:56:50.326019
0.076179,+0000017,-0000021,-0000001,+0000059,-0000081,+0004161,-0000772,+0000448,-0002299,14:56:50.326019
0.076512,+0000006,-0000019,-0000008,+0000062,-0000089,+0004150,-0000772,+0000448,-0002299,14:56:50.326019
0.076845,+0000003,-0000005,-0000010,+0000042,-0000112,+0004154,-0000790,+0000470,-0002328,14:56:50.326019
0.077178,+0000002,-0000018,+0000009,+0000029,-0000088,+0004150,-0000790,+0000470,-0002328,14:56:50.326019
0.077511,+0000029,-0000042,-0000021,+0000042,-0000090,+0004156,-0000790,+0000470,-0002328,14:56:50.326019
0.077844,+0000032,-0000026,-0000007,+0000052,-0000103,+0004150,-0000768,+0000472,-0002332,14:56:50.326019
0.078177,+0000007,-0000039,-0000007,+0000040,-0000084,+0004151,-0000768,+0000472,-0002332,14:56:50.326019
0.078510,+0000011,-0000016,-0000010,+0000051,-0000114,+0004156,-0000768,+0000472,-0002332,14:56:50.326019
0.078843,+0000000,-0000002,+0000006,+0000039,-0000088,+0004149,-0000778,+0000478,-0002343,14:56:50.326019
0.079176,+0000016,-0000040,-0000008,+0000045,-0000093,+0004156,-0000778,+0000478,-0002343,14:56:50.326019
0.079509,+0000025,-0000029,-0000010,+0000049,-0000090,+0004135,-0000778,+0000478,-0002343,14:56:50.326019
0.079842,+0000019,-0000026,-0000008,+0000039,-0000088,+0004138,-0000778,+0000470,-0002345,14:56:50.326019
0.080175,+0000013,-0000042,-0000013,+0000035,-0000085,+0004157,-0000778,+0000470,-0002345,14:56:50.326019
0.080508,-0000009,+0000003,-0000010,+0000028,-0000081,+0004169,-0000778,+0000470,-0002345,14:56:50.326019
0.080841,+0000004,-0000005,+0000001,+0000057,-0000089,+0004155,-0000778,+0000492,-0002322,14:56:50.326019
0.081174,+0000015,-0000034,-0000016,+0000039,-0000097,+0004138,-0000778,+0000492,-0002322,14:56:50.326019
0.081507,+0000030,-0000024,+0000000,+0000043,-0000104,+0004152,-0000778,+0000492,-0002322,14:56:50.326019
0.081840,+0000021,-0000036,-0000013,+0000061,-0000104,+0004151,-0000788,+0000468,-0002307,14:56:50.326019
0.082173,+0000005,-0000016,-0000018,+0000045,-0000077,+0004142,-0000788,+0000468,-0002307,14:56:50.326019
0.082506,+0000013,-0000015,-0000005,+0000055,-0000082,+0004136,-0000788,+0000468,-0002307,14:56:50.326019
0.082839,+0000006,-0000019,-0000011,+0000027,-0000098,+0004139,-0000784,+0000478,-0002325,14:56:50.326019
0.083172,+0000014,-0000018,+0000004,+0000046,-0000064,+0004154,-0000784,+0000478,-0002325,14:56:50.326019
0.083505,+0000029,-0000034,-0000011,+0000045,-0000090,+0004140,-0000784,+0000478,-0002325,14:56:50.326019
0.083838,+0000023,-0000016,-0000018,+0000060,-0000096,+0004144,-0000786,+0000480,-0002323,14:56:50.326019
0.084171,+0000002,-0000018,-0000010,+0000032,-0000082,+0004170,-0000786,+0000480,-0002323,14:56:50.326019
0.084504,+0000015,-0000015,+0000001,+0000046,-0000085,+0004131,-0000786,+0000480,-0002323,14:56:50.326019
0.084837,-0000003,-0000020,-0000011,+0000047,-0000079,+0004128,-0000784,+0000474,-0002311,14:56:50.327006
0.085170,+0000008,-0000021,-0000005,+0000036,-0000096,+0004150,-0000784,+0000474,-0002311,14:56:50.327006
0.085503,+0000026,-0000037,-0000013,+0000057,-0000100,+0004148,-0000784,+0000474,-0002311,14:56:50.327006
0.085836,+0000022,-0000026,-0000007,+0000048,-0000097,+0004141,-0000776,+0000478,-0002339,14:56:50.327006
0.086169,+0000010,-0000029,-0000010,+0000043,-0000102,+0004128,-0000776,+0000478,-0002339,14:56:50.327006
0.086502,+0000019,-0000015,-0000010,+0000059,-0000099,+0004150,-0000776,+0000478,-0002339,14:56:50.327006
0.086835,+0000003,-0000018,-0000010,+0000037,-0000084,+0004144,-0000784,+0000474,-0002341,14:56:50.327006
0.087168,+0000007,-0000031,-0000013,+0000046,-0000086,+0004143,-0000784,+0000474,-0002341,14:56:50.327006
0.087501,+0000019,-0000035,-0000003,+0000052,-0000078,+0004132,-0000784,+0000474,-0002341,14:56:50.327006
0.087834,+0000015,-0000028,-0000012,+0000051,-0000092,+0004132,-0000768,+0000468,-0002320,14:56:50.327006
0.088167,+0000002,-0000002,-0000002,+0000055,-0000082,+0004133,-0000768,+0000468,-0002320,14:56:50.327006
0.088500,+0000011,-0000036,-0000007,+0000049,-0000081,+0004156,-0000768,+0000468,-0002320,14:56:50.327006
0.088833,-0000003,-0000005,-0000002,+0000034,-0000105,+0004166,-0000774,+0000460,-0002312,14:56:50.327006
0.089166,+0000013,-0000034,-0000005,+0000048,-0000087,+0004159,-0000774,+0000460,-0002312,14:56:50.327006
0.089499,+0000010,-0000048,-0000005,+0000030,-0000090,+0004144,-0000774,+0000460,-0002312,14:56:50.327006
0.089832,+0000017,-0000021,-0000007,+0000040,-0000074,+0004147,-0000796,+0000488,-0002351,14:56:50.327006
0.090165,+0000008,-0000023,-0000007,+0000043,-0000081,+0004156,-0000796,+0000488,-0002351,14:56:50.327006
0.090498,+0000013,-0000005,-0000005,+0000050,-0000078,+0004140,-0000796,+0000488,-0002351,14:56:50.327006
0.090831,+0000016,-0000022,-0000008,+0000048,-0000099,+0004148,-0000798,+0000454,-0002303,14:56:50.327006
0.091164,+0000019,-0000035,-0000014,+0000041,-0000105,+0004135,-0000798,+0000454,-0002303,14:56:50.327006
0.091497,+0000024,-0000021,-0000002,+0000052,-0000091,+0004134,-0000798,+0000454,-0002303,14:56:50.327006
0.091830,+0000026,-0000035,-0000022,+0000066,-0000086,+0004155,-0000780,+0000466,-0002308,14:56:50.327006
0.092163,-0000009,-0000008,-0000002,+0000044,-0000078,+0004142,-0000780,+0000466,-0002308,14:56:50.327006
0.092496,+0000000,-0000003,-0000011,+0000040,-0000078,+0004154,-0000780,+0000466,-0002308,14:56:50.327006
0.092829,+0000002,-0000020,+0000005,+0000051,-0000087,+0004151,-0000780,+0000476,-0002341,14:56:50.327006
0.093162,+0000032,-0000037,-0000013,+0000056,-0000086,+0004135,-0000780,+0000476,-0002341,14:56:50.327006
0.093495,+0000038,-0000051,-0000018,+0000039,-0000082,+0004136,-0000780,+0000476,-0002341,14:56:50.327006
0.093828,-0000005,-0000023,-0000011,+0000041,-0000092,+0004133,-0000788,+0000464,-0002328,14:56:50.327006
0.094161,-0000007,+0000003,-0000004,+0000039,-0000096,+0004130,-0000788,+0000464,-0002328,14:56:50.327006
0.094494,+0000014,-0000020,-0000008,+0000034,-0000088,+0004155,-0000788,+0000464,-0002328,14:56:50.327006
0.094827,+0000011,-0000024,-0000007,+0000041,-0000074,+0004143,-0000788,+0000472,-0002325,14:56:50.327006
0.095160,+0000026,-0000037,-0000012,+0000049,-0000078,+0004169,-0000788,+0000472,-0002325,14:56:50.327006
0.095493,+0000016,-0000047,-0000013,+0000043,-0000095,+0004156,-0000788,+0000472,-0002325,14:56:50.327006
0.095826,+0000013,-0000016,-0000013,+0000028,-0000087,+0004150,-0000784,+0000452,-0002319,14:56:50.327006
0.096159,+0000003,-0000026,+0000004,+0000043,-0000080,+0004150,-0000784,+0000452,-0002319,14:56:50.327006
0.096492,+0000016,-0000015,-0000013,+0000054,-0000087,+0004159,-0000784,+0000452,-0002319,14:56:50.327006
0.096825,+0000021,-0000036,-0000004,+0000036,-0000089,+0004162,-0000788,+0000462,-0002314,14:56:50.327006
0.097158,+0000019,-0000042,+0000000,+0000045,-0000077,+0004154,-0000788,+0000462,-0002314,14:56:50.327006
0.097491,+0000014,-0000022,+0000006,+0000051,-0000102,+0004157,-0000788,+0000462,-0002314,14:56:50.327006
0.097983,+0000011,-0000035,-0000016,+0000036,-0000087,+0004157,-0000782,+0000472,-0002316,14:56:50.327006
0.098260,+0000025,-0000013,-0000002,+0000043,-0000087,+0004159,-0000782,+0000472,-0002316,14:56:50.327006
0.098497,+0000003,-0000011,+0000001,+0000044,-0000076,+0004159,-0000782,+0000472,-0002316,14:56:50.327006
0.098825,-0000006,-0000010,-0000014,+0000048,-0000083,+0004153,-0000782,+0000472,-0002311,14:56:50.327006
0.099156,+0000022,-0000013,-0000008,+0000049,-0000087,+0004165,-0000782,+0000472,-0002311,14:56:50.327006
0.099489,+0000002,-0000005,+0000001,+0000042,-0000072,+0004159,-0000782,+0000472,-0002311,14:56:50.327006
0.099823,+0000014,-0000035,-0000013,+0000057,-0000096,+0004165,-0000792,+0000482,-0002335,14:56:50.327006
0.100157,+0000000,-0000012,+0000000,+0000037,-0000074,+0004157,-0000792,+0000482,-0002335,14:56:50.327006
0.100489,+0000018,-0000021,-0000013,+0000045,-0000094,+0004142,-0000792,+0000482,-0002335,14:56:50.327006
0.100823,+0000010,-0000016,-0000002,+0000047,-0000072,+0004153,-0000796,+0000482,-0002326,14:56:50.327006
0.101155,+0000014,-0000029,-0000018,+0000051,-0000102,+0004142,-0000796,+0000482,-0002326,14:56:50.327006
0.101488,+0000024,-0000024,-0000003,+0000035,-0000073,+0004144,-0000796,+0000482,-0002326,14:56:50.327006
0.101820,+0000006,-0000034,-0000019,+0000036,-0000087,+0004150,-0000774,+0000474,-0002324,14:56:50.327006
0.102153,-0000002,+0000003,-0000002,+0000052,-0000081,+0004138,-0000774,+0000474,-0002324,14:56:50.327006
0.102486,+0000010,-0000028,+0000003,+0000054,-0000090,+0004138,-0000774,+0000474,-0002324,14:56:50.327006
0.102819,+0000030,-0000042,-0000013,+0000062,-0000097,+0004147,-0000784,+0000468,-0002330,14:56:50.327006
0.103152,+0000013,-0000038,-0000013,+0000050,-0000085,+0004163,-0000784,+0000468,-0002330,14:56:50.327006
0.103485,+0000019,-0000024,-0000010,+0000030,-0000082,+0004134,-0000784,+0000468,-0002330,14:56:50.327006
0.103818,+0000005,-0000023,-0000012,+0000041,-0000079,+0004147,-0000798,+0000474,-0002318,14:56:50.327006
0.104151,+0000010,-0000011,-0000010,+0000025,-0000091,+0004147,-0000798,+0000474,-0002318,14:56:50.327006
0.104484,+0000013,-0000019,+0000006,+0000033,-0000073,+0004155,-0000798,+0000474,-0002318,14:56:50.327006
0.104817,+0000007,-0000034,-0000006,+0000053,-0000087,+0004133,-0000772,+0000470,-0002341,14:56:50.327006
0.105150,+0000030,-0000042,-0000010,+0000048,-0000096,+0004160,-0000772,+0000470,-0002341,14:56:50.327006
0.105483,+0000022,-0000023,-0000014,+0000037,-0000080,+0004146,-0000772,+0000470,-0002341,14:56:50.327006
0.105816,+0000002,-0000013,+0000001,+0000048,-0000084,+0004158,-0000786,+0000470,-0002327,14:56:50.327006
0.106149,-0000006,-0000001,-0000003,+0000057,-0000081,+0004156,-0000786,+0000470,-0002327,14:56:50.327006
0.106482,+0000011,-0000018,-0000005,+0000046,-0000078,+0004144,-0000786,+0000470,-0002327,14:56:50.327006
0.106815,+0000017,-0000037,-0000011,+0000033,-0000105,+0004163,-0000800,+0000474,-0002322,14:56:50.327006
0.107148,+0000024,-0000032,-0000004,+0000046,-0000072,+0004152,-0000800,+0000474,-0002322,14:56:50.327006
0.107481,+0000014,-0000027,-0000027,+0000041,-0000087,+0004145,-0000800,+0000474,-0002322,14:56:50.327006
0.107814,+0000007,+0000008,+0000000,+0000057,-0000097,+0004130,-0000772,+0000456,-0002335,14:56:50.327006
0.108147,+0000008,-0000011,+0000000,+0000045,-0000077,+0004142,-0000772,+0000456,-0002335,14:56:50.327006
0.108480,+0000013,-0000037,-0000013,+0000046,-0000095,+0004136,-0000772,+0000456,-0002335,14:56:50.327006
0.108813,+0000020,-0000027,-0000008,+0000060,-0000079,+0004149,-0000770,+0000464,-0002328,14:56:50.327006
0.109146,+0000016,-0000043,-0000012,+0000061,-0000080,+0004172,-0000770,+0000464,-0002328,14:56:50.327006
0.109479,+0000018,-0000024,-0000018,+0000066,-0000067,+0004182,-0000770,+0000464,-0002328,14:56:50.327006
0.109812,+0000007,-0000003,-0000008,+0000026,-0000072,+0004156,-0000780,+0000460,-0002339,14:56:50.327006
0.110145,+0000014,-0000016,-0000006,+0000049,-0000089,+0004159,-0000780,+0000460,-0002339,14:56:50.327006
0.110478,+0000022,-0000037,-0000005,+0000054,-0000093,+0004155,-0000780,+0000460,-0002339,14:56:50.327006
0.110811,+0000006,-0000029,-0000007,+0000042,-0000086,+0004141,-0000774,+0000470,-0002340,14:56:50.327006
0.111146,+0000021,-0000021,-0000005,+0000034,-0000071,+0004150,-0000774,+0000470,-0002340,14:56:50.375340
0.111478,+0000010,-0000015,-0000018,+0000045,-0000096,+0004161,-0000774,+0000470,-0002340,14:56:50.375340
0.111813,-0000003,-0000008,+0000003,+0000032,-0000082,+0004156,-0000772,+0000480,-0002329,14:56:50.375340
0.112425,+0000033,-0000050,-0000008,+0000044,-0000096,+0004161,-0000772,+0000480,-0002329,14:56:50.375340
0.112607,-0000001,-0000009,+0000003,+0000045,-0000092,+0004166,-0000772,+0000480,-0002329,14:56:50.375340
0.112987,+0000002,-0000021,-0000013,+0000050,-0000098,+0004134,-0000774,+0000466,-0002345,14:56:50.375340
0.113257,+0000026,-0000042,-0000005,+0000057,-0000104,+0004134,-0000774,+0000466,-0002345,14:56:50.375340
0.113896,+0000002,-0000021,-0000003,+0000060,-0000077,+0004148,-0000774,+0000466,-0002345,14:56:50.375340
0.114142,+0000002,-0000021,-0000003,+0000060,-0000077,+0004151,-0000778,+0000464,-0002337,14:56:50.375340
0.114474,-0000008,-0000005,+0000003,+0000052,-0000103,+0004154,-0000778,+0000464,-0002337,14:56:50.375340
0.115047,+0000008,-0000029,+0000006,+0000046,-0000098,+0004163,-0000778,+0000464,-0002337,14:56:50.375340
0.115245,+0000008,-0000029,+0000006,+0000046,-0000098,+0004163,-0000774,+0000472,-0002321,14:56:50.375340
0.115497,+0000013,-0000008,-0000015,+0000051,-0000095,+0004128,-0000774,+0000472,-0002321,14:56:50.375340
0.115806,+0000013,-0000023,-0000015,+0000059,-0000098,+0004142,-0000774,+0000472,-0002321,14:56:50.375340
0.116311,+0000027,-0000027,-0000019,+0000062,-0000068,+0004134,-0000780,+0000476,-0002321,14:56:50.375340
0.116549,+0000012,-0000020,-0000005,+0000048,-0000083,+0004138,-0000780,+0000476,-0002321,14:56:50.375340
0.116805,+0000010,-0000033,-0000015,+0000054,-0000088,+0004155,-0000780,+0000476,-0002321,14:56:50.375340
0.117139,+0000027,-0000015,-0000005,+0000064,-0000089,+0004143,-0000772,+0000488,-0002289,14:56:50.375340
0.117472,+0000019,-0000024,-0000010,+0000055,-0000108,+0004154,-0000772,+0000488,-0002289,14:56:50.375340
0.117806,+0000006,-0000013,-0000005,+0000061,-0000104,+0004151,-0000772,+0000488,-0002289,14:56:50.375340
0.118138,+0000025,-0000013,-0000007,+0000034,-0000083,+0004157,-0000782,+0000492,-0002330,14:56:50.375340
0.118471,+0000015,-0000034,-0000010,+0000027,-0000065,+0004161,-0000782,+0000492,-0002330,14:56:50.375340
0.118803,+0000022,-0000027,-0000010,+0000032,-0000066,+0004159,-0000782,+0000492,-0002330,14:56:50.375340
0.119139,+0000014,-0000031,-0000004,+0000047,-0000084,+0004142,-0000774,+0000478,-0002328,14:56:50.375340
0.119475,+0000025,-0000020,-0000019,+0000029,-0000091,+0004139,-0000774,+0000478,-0002328,14:56:50.375340
0.119802,+0000016,-0000031,-0000008,+0000061,-0000093,+0004132,-0000774,+0000478,-0002328,14:56:50.375340
0.120135,+0000020,-0000029,-0000015,+0000049,-0000085,+0004145,-0000786,+0000488,-0002315,14:56:50.375340
0.120468,+0000024,-0000039,-0000005,+0000056,-0000097,+0004157,-0000786,+0000488,-0002315,14:56:50.375340
0.120801,+0000024,-0000044,-0000002,+0000035,-0000079,+0004162,-0000786,+0000488,-0002315,14:56:50.375340
0.121134,+0000030,-0000021,-0000019,+0000050,-0000085,+0004157,-0000782,+0000476,-0002320,14:56:50.375340
0.121467,+0000003,+0000006,-0000010,+0000055,-0000077,+0004140,-0000782,+0000476,-0002320,14:56:50.375340
0.121800,+0000016,-0000010,+0000000,+0000036,-0000095,+0004133,-0000782,+0000476,-0002320,14:56:50.375340
0.122133,+0000027,-0000024,-0000017,+0000038,-0000093,+0004140,-0000776,+0000476,-0002325,14:56:50.375340
0.122466,+0000013,-0000040,-0000002,+0000052,-0000071,+0004154,-0000776,+0000476,-0002325,14:56:50.375340
0.122799,+0000029,-0000031,-0000013,+0000038,-0000097,+0004150,-0000776,+0000476,-0002325,14:56:50.375340
0.123132,+0000007,-0000006,-0000014,+0000052,-0000086,+0004143,-0000768,+0000476,-0002342,14:56:50.375340
0.123465,+0000014,-0000015,+0000001,+0000033,-0000082,+0004152,-0000768,+0000476,-0002342,14:56:50.375340
0.123798,+0000014,-0000015,-0000022,+0000028,-0000079,+0004144,-0000768,+0000476,-0002342,14:56:50.375340
0.124131,+0000012,-0000023,-0000008,+0000022,-0000108,+0004165,-0000790,+0000482,-0002324,14:56:50.375340
0.124464,+0000030,-0000037,-0000015,+0000029,-0000092,+0004149,-0000790,+0000482,-0002324,14:56:50.375340
0.124797,+0000022,-0000018,-0000014,+0000056,-0000105,+0004155,-0000790,+0000482,-0002324,14:56:50.375340
0.125130,+0000015,-0000013,-0000003,+0000037,-0000095,+0004150,-0000772,+0000482,-0002326,14:56:50.375340
0.125463,+0000017,-0000010,+0000000,+0000047,-0000093,+0004138,-0000772,+0000482,-0002326,14:56:50.375340
0.125796,+0000005,-0000015,-0000005,+0000036,-0000072,+0004150,-0000772,+0000482,-0002326,14:56:50.375340
0.126129,+0000007,-0000028,-0000008,+0000052,-0000086,+0004162,-0000798,+0000486,-0002326,14:56:50.375340
0.126462,+0000036,-0000034,+0000004,+0000033,-0000089,+0004140,-0000798,+0000486,-0002326,14:56:50.375340
0.126795,+0000021,-0000032,-0000022,+0000024,-0000077,+0004142,-0000798,+0000486,-0002326,14:56:50.375340
0.127128,+0000021,-0000027,-0000008,+0000042,-0000091,+0004164,-0000774,+0000480,-0002327,14:56:50.375340
0.127461,+0000017,-0000024,+0000000,+0000039,-0000076,+0004148,-0000774,+0000480,-0002327,14:56:50.375340
0.127794,+0000003,-0000005,-0000007,+0000064,-0000076,+0004152,-0000774,+0000480,-0002327,14:56:50.375340
0.128127,+0000008,-0000021,-0000003,+0000051,-0000090,+0004153,-0000782,+0000494,-0002321,14:56:50.375340
0.128460,+0000021,-0000034,-0000026,+0000053,-0000108,+0004138,-0000782,+0000494,-0002321,14:56:50.375340
0.128793,+0000025,-0000031,-0000011,+0000054,-0000087,+0004154,-0000782,+0000494,-0002321,14:56:50.375340
0.129176,+0000005,-0000026,-0000011,+0000051,-0000079,+0004134,-0000778,+0000476,-0002330,14:56:50.375340
0.129459,+0000006,-0000008,-0000005,+0000045,-0000112,+0004155,-0000778,+0000476,-0002330,14:56:50.376341
0.129792,+0000021,-0000022,+0000001,+0000039,-0000099,+0004146,-0000778,+0000476,-0002330,14:56:50.376341
0.130125,+0000021,-0000036,-0000007,+0000047,-0000089,+0004181,-0000782,+0000472,-0002329,14:56:50.376341
0.130458,+0000027,-0000039,-0000016,+0000044,-0000079,+0004153,-0000782,+0000472,-0002329,14:56:50.376341
0.130791,+0000002,-0000019,+0000001,+0000052,-0000091,+0004128,-0000782,+0000472,-0002329,14:56:50.376341
0.131124,+0000010,-0000020,-0000010,+0000065,-0000071,+0004133,-0000772,+0000478,-0002333,14:56:50.376341
0.131457,+0000004,-0000005,-0000012,+0000053,-0000098,+0004135,-0000772,+0000478,-0002333,14:56:50.376341
0.131790,+0000011,-0000012,-0000004,+0000056,-0000100,+0004156,-0000772,+0000478,-0002333,14:56:50.376341
0.132123,+0000027,-0000026,-0000013,+0000040,-0000100,+0004160,-0000784,+0000482,-0002334,14:56:50.376341
0.132456,+0000035,-0000032,-0000005,+0000049,-0000105,+0004158,-0000784,+0000482,-0002334,14:56:50.376341
0.132789,+0000014,-0000035,-0000019,+0000043,-0000089,+0004143,-0000784,+0000482,-0002334,14:56:50.376341
0.133122,+0000000,-0000003,-0000004,+0000065,-0000099,+0004164,-0000780,+0000462,-0002305,14:56:50.376341
0.133455,+0000025,-0000011,-0000010,+0000061,-0000097,+0004149,-0000780,+0000462,-0002305,14:56:50.376341
0.133788,+0000000,-0000019,-0000010,+0000050,-0000063,+0004148,-0000780,+0000462,-0002305,14:56:50.376341
0.134121,+0000032,-0000037,-0000008,+0000048,-0000087,+0004157,-0000776,+0000482,-0002288,14:56:50.376341
0.134454,+0000008,-0000034,-0000018,+0000042,-0000081,+0004158,-0000776,+0000482,-0002288,14:56:50.376341
0.134787,+0000019,-0000026,-0000002,+0000048,-0000076,+0004167,-0000776,+0000482,-0002288,14:56:50.376341
0.135120,+0000004,-0000012,-0000010,+0000042,-0000100,+0004152,-0000788,+0000468,-0002303,14:56:50.376341
0.135453,+0000000,-0000012,-0000016,+0000042,-0000103,+0004147,-0000788,+0000468,-0002303,14:56:50.376341
0.135786,+0000014,-0000024,+0000003,+0000046,-0000077,+0004144,-0000788,+0000468,-0002303,14:56:50.376341
0.136119,+0000016,-0000029,-0000005,+0000055,-0000088,+0004158,-0000782,+0000484,-0002332,14:56:50.376341
0.136452,+0000016,-0000039,-0000016,+0000043,-0000099,+0004145,-0000782,+0000484,-0002332,14:56:50.376341
0.136785,+0000014,-0000012,-0000015,+0000045,-0000098,+0004137,-0000782,+0000484,-0002332,14:56:50.376341
0.137118,-0000003,-0000018,-0000006,+0000040,-0000094,+0004174,-0000778,+0000488,-0002332,14:56:50.376341
0.137451,+0000000,-0000021,-0000005,+0000045,-0000083,+0004143,-0000778,+0000488,-0002332,14:56:50.376341
0.137784,+0000013,-0000026,-0000005,+0000024,-0000079,+0004144,-0000778,+0000488,-0002332,14:56:50.376341
0.138117,+0000030,-0000042,-0000010,+0000035,-0000084,+0004131,-0000790,+0000486,-0002310,14:56:50.376341
0.138450,+0000024,-0000007,-0000016,+0000057,-0000093,+0004159,-0000790,+0000486,-0002310,14:56:50.376341
0.138783,+0000026,-0000018,-0000010,+0000053,-0000097,+0004151,-0000790,+0000486,-0002310,14:56:50.376341
0.139116,+0000003,-0000021,-0000001,+0000074,-0000081,+0004146,-0000768,+0000480,-0002344,14:56:50.376341
0.139449,+0000013,-0000019,-0000007,+0000064,-0000095,+0004130,-0000768,+0000480,-0002344,14:56:50.376341
0.139782,+0000008,-0000020,-0000003,+0000029,-0000075,+0004162,-0000768,+0000480,-0002344,14:56:50.376341
0.140115,+0000030,-0000050,-0000014,+0000040,-0000091,+0004159,-0000788,+0000494,-0002334,14:56:50.376341
0.140448,+0000022,-0000026,-0000014,+0000048,-0000086,+0004157,-0000788,+0000494,-0002334,14:56:50.376341
0.140781,+0000006,-0000011,-0000002,+0000045,-0000099,+0004153,-0000788,+0000494,-0002334,14:56:50.376341
0.141114,+0000005,-0000014,-0000013,+0000039,-0000070,+0004152,-0000776,+0000480,-0002340,14:56:50.376341
0.141447,+0000009,-0000026,-0000015,+0000031,-0000084,+0004160,-0000776,+0000480,-0002340,14:56:50.376341
0.141780,+0000011,-0000021,-0000015,+0000045,-0000086,+0004145,-0000776,+0000480,-0002340,14:56:50.376341
0.142113,+0000027,-0000034,-0000015,+0000037,-0000109,+0004139,-0000794,+0000472,-0002319,14:56:50.376341
0.142446,+0000017,-0000031,-0000004,+0000044,-0000104,+0004139,-0000794,+0000472,-0002319,14:56:50.376341
0.142779,-0000006,-0000012,-0000002,+0000043,-0000086,+0004152,-0000794,+0000472,-0002319,14:56:50.376341
0.143112,+0000025,-0000032,-0000016,+0000060,-0000096,+0004157,-0000784,+0000470,-0002300,14:56:50.376341
0.143445,-0000001,-0000010,+0000000,+0000052,-0000099,+0004162,-0000784,+0000470,-0002300,14:56:50.376341
0.143778,+0000024,-0000040,-0000010,+0000036,-0000085,+0004146,-0000784,+0000470,-0002300,14:56:50.376341
0.144111,+0000016,-0000024,-0000013,+0000049,-0000073,+0004151,-0000784,+0000476,-0002318,14:56:50.376341
0.144444,+0000013,-0000027,+0000001,+0000046,-0000091,+0004143,-0000784,+0000476,-0002318,14:56:50.376341
0.144777,+0000010,-0000016,-0000025,+0000049,-0000095,+0004143,-0000784,+0000476,-0002318,14:56:50.376341
0.145110,+0000006,+0000001,+0000003,+0000036,-0000097,+0004147,-0000788,+0000480,-0002321,14:56:50.376341
0.145443,+0000008,-0000018,-0000008,+0000050,-0000088,+0004143,-0000788,+0000480,-0002321,14:56:50.376341
0.145776,+0000014,-0000037,+0000000,+0000046,-0000088,+0004157,-0000788,+0000480,-0002321,14:56:50.376341
0.146109,+0000028,-0000045,-0000016,+0000046,-0000118,+0004147,-0000780,+0000476,-0002326,14:56:50.376341
0.146442,+0000005,-0000016,+0000004,+0000047,-0000067,+0004133,-0000780,+0000476,-0002326,14:56:50.376341
0.146775,+0000025,-0000027,-0000018,+0000048,-0000100,+0004143,-0000780,+0000476,-0002326,14:56:50.376341
0.147108,+0000003,+0000004,-0000005,+0000042,-0000099,+0004126,-0000770,+0000470,-0002329,14:56:50.376341
0.147441,+0000014,-0000027,-0000004,+0000052,-0000097,+0004156,-0000770,+0000470,-0002329,14:56:50.376341
0.147774,+0000005,-0000044,-0000008,+0000039,-0000084,+0004144,-0000770,+0000470,-0002329,14:56:50.376341
0.148107,+0000032,-0000039,-0000029,+0000061,-0000080,+0004120,-0000784,+0000486,-0002309,14:56:50.376341
0.148440,+0000018,-0000021,-0000004,+0000039,-0000089,+0004127,-0000784,+0000486,-0002309,14:56:50.376341
0.148773,-0000002,-0000010,-0000013,+0000037,-0000096,+0004131,-0000784,+0000486,-0002309,14:56:50.376341
0.149106,+0000008,-0000007,-0000010,+0000042,-0000087,+0004154,-0000778,+0000472,-0002328,14:56:50.376341
0.149439,+0000016,-0000031,-0000002,+0000040,-0000105,+0004160,-0000778,+0000472,-0002328,14:56:50.376341
0.149772,+0000025,-0000037,-0000018,+0000053,-0000085,+0004152,-0000778,+0000472,-0002328,14:56:50.376341
0.150105,+0000015,-0000047,-0000006,+0000043,-0000095,+0004157,-0000778,+0000478,-0002320,14:56:50.376341
0.150438,+0000010,-0000016,-0000013,+0000041,-0000093,+0004163,-0000778,+0000478,-0002320,14:56:50.376341
0.150771,+0000000,-0000005,-0000008,+0000046,-0000081,+0004168,-0000778,+0000478,-0002320,14:56:50.376341
0.151104,+0000007,-0000026,-0000008,+0000045,-0000085,+0004148,-0000792,+0000478,-0002329,14:56:50.376341
0.151437,+0000015,-0000021,+0000000,+0000022,-0000074,+0004153,-0000792,+0000478,-0002329,14:56:50.376341
0.151770,+0000022,-0000032,-0000011,+0000034,-0000077,+0004148,-0000792,+0000478,-0002329,14:56:50.376341
0.152103,+0000019,-0000015,-0000003,+0000043,-0000089,+0004148,-0000784,+0000472,-0002313,14:56:50.376341
0.152436,+0000006,-0000008,-0000011,+0000043,-0000089,+0004170,-0000784,+0000472,-0002313,14:56:50.376341
0.152769,-0000001,-0000019,-0000007,+0000047,-0000100,+0004160,-0000784,+0000472,-0002313,14:56:50.376341
0.153102,+0000026,-0000015,-0000008,+0000046,-0000090,+0004155,-0000792,+0000476,-0002311,14:56:50.376341
0.153435,+0000014,-0000035,-0000014,+0000062,-0000098,+0004153,-0000792,+0000476,-0002311,14:56:50.376341
0.153768,+0000028,-0000032,-0000007,+0000049,-0000106,+0004154,-0000792,+0000476,-0002311,14:56:50.376341
0.154101,+0000019,-0000037,-0000015,+0000041,-0000086,+0004151,-0000792,+0000466,-0002328,14:56:50.376341
0.154434,+0000008,-0000016,-0000010,+0000032,-0000094,+0004129,-0000792,+0000466,-0002328,14:56:50.376341
0.154767,-0000001,-0000010,-0000006,+0000055,-0000095,+0004152,-0000792,+0000466,-0002328,14:56:50.376341
0.155126,+0000008,-0000007,-0000013,+0000035,-0000073,+0004146,-0000788,+0000466,-0002314,14:56:50.376341
0.155433,+0000022,-0000047,-0000006,+0000038,-0000112,+0004162,-0000788,+0000466,-0002314,14:56:50.376341
0.155766,+0000004,-0000018,+0000001,+0000052,-0000077,+0004138,-0000788,+0000466,-0002314,14:56:50.376341
0.156099,+0000010,-0000021,-0000016,+0000045,-0000084,+0004169,-0000794,+0000468,-0002307,14:56:50.376341
0.156432,+0000016,-0000027,-0000007,+0000030,-0000080,+0004135,-0000794,+0000468,-0002307,14:56:50.376341
0.156765,+0000003,-0000002,-0000002,+0000034,-0000106,+0004142,-0000794,+0000468,-0002307,14:56:50.376341
0.157098,+0000003,-0000023,-0000007,+0000042,-0000103,+0004149,-0000772,+0000468,-0002308,14:56:50.376341
0.157431,+0000016,-0000037,-0000013,+0000046,-0000076,+0004146,-0000772,+0000468,-0002308,14:56:50.376341
0.157764,+0000014,-0000024,+0000000,+0000043,-0000095,+0004140,-0000772,+0000468,-0002308,14:56:50.376341
0.158097,+0000022,-0000038,-0000012,+0000046,-0000083,+0004169,-0000772,+0000458,-0002332,14:56:50.376341
0.158430,+0000016,-0000024,-0000007,+0000049,-0000080,+0004165,-0000772,+0000458,-0002332,14:56:50.376341
0.158763,+0000010,-0000010,-0000013,+0000039,-0000084,+0004154,-0000772,+0000458,-0002332,14:56:50.376341
0.159096,+0000016,-0000016,-0000008,+0000045,-0000115,+0004157,-0000774,+0000488,-0002309,14:56:50.376341
0.159429,+0000028,-0000029,-0000010,+0000037,-0000084,+0004154,-0000774,+0000488,-0002309,14:56:50.376341
0.159762,+0000021,-0000039,+0000003,+0000039,-0000092,+0004156,-0000774,+0000488,-0002309,14:56:50.376341
0.160095,+0000021,-0000034,-0000018,+0000038,-0000096,+0004167,-0000780,+0000460,-0002306,14:56:50.376341
0.160428,+0000010,-0000017,-0000010,+0000052,-0000084,+0004145,-0000780,+0000460,-0002306,14:56:50.376341
0.160761,+0000017,-0000013,-0000003,+0000054,-0000097,+0004153,-0000780,+0000460,-0002306,14:56:50.376341
0.161094,+0000002,-0000012,+0000000,+0000045,-0000111,+0004146,-0000780,+0000480,-0002321,14:56:50.423989
0.161428,+0000023,-0000042,-0000016,+0000040,-0000101,+0004172,-0000780,+0000480,-0002321,14:56:50.423989
0.161764,+0000022,-0000032,-0000005,+0000043,-0000089,+0004145,-0000780,+0000480,-0002321,14:56:50.423989
0.162487,-0000001,-0000007,+0000001,+0000041,-0000088,+0004161,-0000804,+0000472,-0002334,14:56:50.423989
0.162886,+0000005,-0000012,-0000008,+0000054,-0000094,+0004136,-0000804,+0000472,-0002334,14:56:50.423989
0.163113,-0000003,-0000005,+0000000,+0000059,-0000088,+0004136,-0000804,+0000472,-0002334,14:56:50.423989
0.163482,+0000024,-0000043,-0000016,+0000050,-0000071,+0004144,-0000782,+0000490,-0002314,14:56:50.423989
0.163757,+0000010,-0000013,+0000000,+0000050,-0000111,+0004140,-0000782,+0000490,-0002314,14:56:50.423989
0.164229,+0000019,-0000018,-0000005,+0000055,-0000116,+0004146,-0000782,+0000490,-0002314,14:56:50.423989
0.164425,+0000022,-0000015,-0000003,+0000035,-0000081,+0004177,-0000784,+0000460,-0002309,14:56:50.423989
0.164762,+0000005,-0000021,-0000002,+0000033,-0000098,+0004144,-0000784,+0000460,-0002309,14:56:50.423989
0.165286,+0000000,-0000010,-0000006,+0000064,-0000097,+0004150,-0000784,+0000460,-0002309,14:56:50.423989
0.165465,+0000000,-0000010,-0000010,+0000034,-0000083,+0004160,-0000786,+0000458,-0002318,14:56:50.423989
0.165792,+0000022,-0000047,-0000002,+0000055,-0000072,+0004148,-0000786,+0000458,-0002318,14:56:50.423989
0.166091,+0000021,-0000029,-0000012,+0000067,-0000102,+0004150,-0000786,+0000458,-0002318,14:56:50.423989
0.166422,+0000011,-0000029,-0000015,+0000032,-0000117,+0004148,-0000784,+0000478,-0002319,14:56:50.423989
0.166760,+0000010,-0000013,+0000000,+0000057,-0000080,+0004150,-0000784,+0000478,-0002319,14:56:50.423989
0.167088,+0000008,-0000021,-0000008,+0000063,-0000101,+0004145,-0000784,+0000478,-0002319,14:56:50.423989
0.167422,+0000035,-0000027,-0000004,+0000037,-0000110,+0004144,-0000788,+0000472,-0002304,14:56:50.423989
0.167760,+0000010,-0000023,-0000016,+0000064,-0000088,+0004161,-0000788,+0000472,-0002304,14:56:50.423989
0.168087,+0000016,-0000029,-0000005,+0000048,-0000075,+0004152,-0000788,+0000472,-0002304,14:56:50.423989
0.168420,+0000005,-0000007,-0000010,+0000036,-0000082,+0004146,-0000788,+0000470,-0002311,14:56:50.423989
0.168757,+0000011,-0000011,-0000004,+0000057,-0000087,+0004155,-0000788,+0000470,-0002311,14:56:50.423989
0.169088,+0000010,-0000023,-0000003,+0000038,-0000083,+0004142,-0000788,+0000470,-0002311,14:56:50.423989
0.169419,+0000020,-0000038,-0000024,+0000031,-0000091,+0004142,-0000786,+0000476,-0002328,14:56:50.423989
0.169755,+0000011,-0000021,-0000012,+0000042,-0000093,+0004155,-0000786,+0000476,-0002328,14:56:50.423989
0.170085,+0000014,-0000012,-0000008,+0000049,-0000073,+0004136,-0000786,+0000476,-0002328,14:56:50.423989
0.170418,-0000004,-0000008,+0000001,+0000068,-0000100,+0004155,-0000774,+0000452,-0002341,14:56:50.423989
0.170756,+0000016,-0000018,-0000002,+0000047,-0000088,+0004130,-0000774,+0000452,-0002341,14:56:50.423989
0.171084,+0000029,-0000031,-0000011,+0000038,-0000095,+0004165,-0000774,+0000452,-0002341,14:56:50.423989
0.171417,+0000018,-0000026,-0000004,+0000058,-0000077,+0004157,-0000774,+0000474,-0002335,14:56:50.423989
0.171755,+0000025,-0000042,-0000016,+0000064,-0000088,+0004157,-0000774,+0000474,-0002335,14:56:50.423989
0.172083,-0000014,-0000010,-0000008,+0000059,-0000083,+0004140,-0000774,+0000474,-0002335,14:56:50.423989
0.172416,+0000024,-0000024,-0000011,+0000056,-0000087,+0004144,-0000780,+0000466,-0002342,14:56:50.423989
0.172754,+0000005,-0000010,-0000005,+0000044,-0000115,+0004173,-0000780,+0000466,-0002342,14:56:50.423989
0.173082,+0000016,-0000029,-0000005,+0000052,-0000077,+0004162,-0000780,+0000466,-0002342,14:56:50.423989
0.173415,+0000017,-0000035,-0000014,+0000054,-0000077,+0004137,-0000774,+0000472,-0002322,14:56:50.423989
0.173753,+0000005,-0000032,-0000010,+0000050,-0000081,+0004149,-0000774,+0000472,-0002322,14:56:50.423989
0.174081,+0000018,-0000015,-0000007,+0000049,-0000080,+0004127,-0000774,+0000472,-0002322,14:56:50.423989
0.174414,+0000005,-0000007,+0000006,+0000064,-0000094,+0004159,-0000780,+0000468,-0002327,14:56:50.423989
0.174752,+0000026,-0000034,-0000021,+0000048,-0000085,+0004162,-0000780,+0000468,-0002327,14:56:50.423989
0.175080,+0000026,-0000024,+0000000,+0000046,-0000099,+0004161,-0000780,+0000468,-0002327,14:56:50.423989
0.175413,+0000036,-0000045,-0000024,+0000040,-0000092,+0004159,-0000790,+0000474,-0002321,14:56:50.423989
0.175751,+0000009,-0000010,+0000005,+0000049,-0000086,+0004153,-0000790,+0000474,-0002321,14:56:50.423989
0.176079,+0000002,-0000011,+0000003,+0000054,-0000093,+0004149,-0000790,+0000474,-0002321,14:56:50.423989
0.176412,-0000006,-0000018,-0000013,+0000049,-0000106,+0004166,-0000780,+0000458,-0002321,14:56:50.423989
0.176748,+0000008,-0000023,+0000006,+0000041,-0000095,+0004145,-0000780,+0000458,-0002321,14:56:50.423989
0.177078,+0000027,-0000046,-0000024,+0000048,-0000080,+0004151,-0000780,+0000458,-0002321,14:56:50.423989
0.177411,+0000010,-0000028,-0000005,+0000044,-0000090,+0004148,-0000762,+0000466,-0002357,14:56:50.423989
0.177748,+0000013,-0000013,-0000002,+0000043,-0000092,+0004141,-0000762,+0000466,-0002357,14:56:50.423989
0.178077,-0000001,-0000022,-0000017,+0000052,-0000106,+0004158,-0000762,+0000466,-0002357,14:56:50.423989
0.178410,+0000010,-0000013,-0000005,+0000046,-0000094,+0004127,-0000766,+0000484,-0002325,14:56:50.423989
0.178747,+0000008,-0000031,+0000001,+0000048,-0000093,+0004141,-0000766,+0000484,-0002325,14:56:50.423989
0.179076,+0000019,-0000032,-0000022,+0000049,-0000114,+0004149,-0000766,+0000484,-0002325,14:56:50.423989
0.179409,+0000022,-0000021,-0000005,+0000037,-0000086,+0004155,-0000766,+0000474,-0002316,14:56:50.423989
0.179747,+0000011,-0000021,-0000017,+0000047,-0000076,+0004157,-0000766,+0000474,-0002316,14:56:50.423989
0.180075,+0000000,+0000000,+0000006,+0000031,-0000100,+0004154,-0000766,+0000474,-0002316,14:56:50.423989
0.180408,+0000016,-0000013,-0000010,+0000039,-0000113,+0004165,-0000776,+0000488,-0002328,14:56:50.423989
0.180745,+0000024,-0000037,-0000003,+0000036,-0000081,+0004164,-0000776,+0000488,-0002328,14:56:50.423989
0.181074,+0000016,-0000021,+0000001,+0000030,-0000105,+0004167,-0000776,+0000488,-0002328,14:56:50.423989
0.181407,+0000010,-0000018,-0000016,+0000043,-0000080,+0004147,-0000784,+0000472,-0002352,14:56:50.423989
0.181744,+0000018,-0000019,-0000013,+0000041,-0000089,+0004166,-0000784,+0000472,-0002352,14:56:50.423989
0.182073,-0000004,-0000016,+0000007,+0000067,-0000086,+0004150,-0000784,+0000472,-0002352,14:56:50.423989
0.182406,+0000021,-0000011,-0000013,+0000070,-0000064,+0004150,-0000778,+0000480,-0002321,14:56:50.423989
0.182739,+0000000,-0000031,-0000008,+0000046,-0000092,+0004170,-0000778,+0000480,-0002321,14:56:50.423989
0.183072,+0000014,-0000032,-0000006,+0000052,-0000091,+0004152,-0000778,+0000480,-0002321,14:56:50.423989
0.183405,+0000021,-0000027,-0000010,+0000054,-0000081,+0004150,-0000788,+0000486,-0002332,14:56:50.423989
0.183739,+0000013,-0000030,-0000016,+0000035,-0000082,+0004158,-0000788,+0000486,-0002332,14:56:50.423989
0.184071,-0000006,+0000000,-0000002,+0000011,-0000094,+0004132,-0000788,+0000486,-0002332,14:56:50.423989
0.184404,+0000027,-0000038,-0000007,+0000040,-0000082,+0004158,-0000806,+0000472,-0002346,14:56:50.423989
0.184739,+0000029,-0000038,-0000010,+0000038,-0000094,+0004163,-0000806,+0000472,-0002346,14:56:50.423989
0.185070,+0000010,-0000034,-0000015,+0000051,-0000085,+0004146,-0000806,+0000472,-0002346,14:56:50.423989
0.185403,+0000018,-0000019,-0000010,+0000059,-0000080,+0004142,-0000770,+0000494,-0002314,14:56:50.423989
0.185740,+0000004,-0000013,+0000005,+0000038,-0000085,+0004159,-0000770,+0000494,-0002314,14:56:50.423989
0.186069,+0000017,-0000021,-0000016,+0000065,-0000093,+0004141,-0000770,+0000494,-0002314,14:56:50.423989
0.186402,+0000011,-0000016,-0000015,+0000062,-0000076,+0004160,-0000778,+0000478,-0002329,14:56:50.423989
0.186739,+0000016,-0000027,-0000008,+0000067,-0000115,+0004162,-0000778,+0000478,-0002329,14:56:50.423989
0.187068,+0000021,-0000040,-0000006,+0000047,-0000087,+0004133,-0000778,+0000478,-0002329,14:56:50.423989
0.187401,+0000014,-0000026,-0000010,+0000045,-0000081,+0004138,-0000768,+0000488,-0002317,14:56:50.423989
0.187738,+0000008,-0000020,-0000014,+0000064,-0000109,+0004156,-0000768,+0000488,-0002317,14:56:50.423989
0.188067,+0000006,-0000010,-0000004,+0000056,-0000088,+0004165,-0000768,+0000488,-0002317,14:56:50.423989
0.188400,+0000006,-0000029,-0000003,+0000042,-0000096,+0004127,-0000794,+0000488,-0002351,14:56:50.423989
0.188746,+0000022,-0000037,-0000008,+0000038,-0000098,+0004143,-0000794,+0000488,-0002351,14:56:50.423989
0.189066,+0000010,-0000026,-0000008,+0000042,-0000089,+0004176,-0000794,+0000488,-0002351,14:56:50.423989
0.189399,+0000007,-0000019,-0000007,+0000042,-0000080,+0004154,-0000788,+0000478,-0002318,14:56:50.423989
0.189745,+0000005,-0000013,+0000003,+0000046,-0000098,+0004156,-0000788,+0000478,-0002318,14:56:50.423989
0.190065,+0000009,-0000013,-0000010,+0000053,-0000078,+0004147,-0000788,+0000478,-0002318,14:56:50.423989
0.190398,+0000027,-0000034,-0000006,+0000055,-0000089,+0004162,-0000774,+0000482,-0002313,14:56:50.423989
0.190744,+0000022,-0000035,-0000016,+0000040,-0000080,+0004163,-0000774,+0000482,-0002313,14:56:50.423989
0.191064,+0000017,-0000037,-0000008,+0000038,-0000077,+0004161,-0000774,+0000482,-0002313,14:56:50.423989
0.191397,+0000005,-0000013,-0000005,+0000058,-0000092,+0004142,-0000778,+0000476,-0002316,14:56:50.423989
0.191743,+0000005,-0000008,-0000007,+0000076,-0000101,+0004146,-0000778,+0000476,-0002316,14:56:50.423989
0.192063,+0000022,-0000026,-0000005,+0000058,-0000105,+0004148,-0000778,+0000476,-0002316,14:56:50.423989
0.192396,+0000026,-0000045,-0000005,+0000032,-0000087,+0004149,-0000782,+0000486,-0002328,14:56:50.423989
0.192741,+0000016,-0000037,-0000015,+0000058,-0000110,+0004157,-0000782,+0000486,-0002328,14:56:50.423989
0.193062,+0000016,-0000026,-0000014,+0000045,-0000103,+0004167,-0000782,+0000486,-0002328,14:56:50.423989
0.193395,+0000011,-0000018,-0000019,+0000055,-0000094,+0004170,-0000780,+0000472,-0002333,14:56:50.423989
0.193728,-0000003,-0000004,-0000002,+0000059,-0000088,+0004157,-0000780,+0000472,-0002333,14:56:50.424993
0.194061,+0000013,-0000021,-0000013,+0000051,-0000089,+0004154,-0000780,+0000472,-0002333,14:56:50.424993
0.194394,+0000008,-0000019,-0000003,+0000025,-0000089,+0004154,-0000774,+0000488,-0002315,14:56:50.424993
0.194727,+0000021,-0000044,-0000007,+0000046,-0000093,+0004153,-0000774,+0000488,-0002315,14:56:50.424993
0.195060,+0000019,-0000023,-0000013,+0000045,-0000088,+0004166,-0000774,+0000488,-0002315,14:56:50.424993
0.195393,+0000006,-0000024,-0000002,+0000053,-0000086,+0004158,-0000790,+0000478,-0002327,14:56:50.424993
0.195726,+0000008,-0000005,-0000008,+0000057,-0000107,+0004173,-0000790,+0000478,-0002327,14:56:50.424993
0.196059,+0000008,-0000021,+0000000,+0000037,-0000096,+0004162,-0000790,+0000478,-0002327,14:56:50.424993
0.196392,+0000022,-0000018,-0000007,+0000046,-0000064,+0004173,-0000770,+0000486,-0002328,14:56:50.424993
0.196725,+0000007,-0000024,-0000007,+0000060,-0000084,+0004145,-0000770,+0000486,-0002328,14:56:50.424993
0.197058,+0000027,-0000037,-0000013,+0000047,-0000084,+0004155,-0000770,+0000486,-0002328,14:56:50.424993
0.197391,+0000000,-0000013,-0000010,+0000037,-0000096,+0004141,-0000786,+0000484,-0002318,14:56:50.424993
0.197724,+0000002,-0000003,-0000005,+0000034,-0000097,+0004143,-0000786,+0000484,-0002318,14:56:50.424993
0.198057,+0000009,-0000019,+0000006,+0000037,-0000105,+0004141,-0000786,+0000484,-0002318,14:56:50.424993
0.198390,+0000027,-0000037,-0000008,+0000051,-0000098,+0004139,-0000800,+0000460,-0002339,14:56:50.424993
0.198723,+0000021,-0000039,-0000004,+0000059,-0000106,+0004136,-0000800,+0000460,-0002339,14:56:50.424993
0.199056,+0000021,-0000024,-0000020,+0000043,-0000080,+0004148,-0000800,+0000460,-0002339,14:56:50.424993
0.199389,+0000004,-0000013,-0000004,+0000061,-0000096,+0004131,-0000790,+0000468,-0002323,14:56:50.424993
0.199722,+0000005,-0000007,-0000003,+0000037,-0000097,+0004135,-0000790,+0000468,-0002323,14:56:50.424993
0.200055,+0000003,-0000007,+0000006,+0000054,-0000082,+0004146,-0000790,+0000468,-0002323,14:56:50.424993
0.200388,+0000026,-0000032,-0000024,+0000059,-0000111,+0004157,-0000776,+0000472,-0002357,14:56:50.424993
0.200721,+0000018,-0000037,-0000004,+0000045,-0000086,+0004161,-0000776,+0000472,-0002357,14:56:50.424993
0.201054,+0000024,-0000025,-0000023,+0000034,-0000089,+0004161,-0000776,+0000472,-0002357,14:56:50.424993
0.201387,+0000016,-0000008,-0000008,+0000040,-0000083,+0004161,-0000776,+0000472,-0002304,14:56:50.424993
0.201720,+0000008,-0000019,-0000002,+0000051,-0000084,+0004156,-0000776,+0000472,-0002304,14:56:50.424993
0.202053,+0000014,-0000026,-0000005,+0000048,-0000084,+0004145,-0000776,+0000472,-0002304,14:56:50.424993
0.202386,+0000019,-0000032,-0000010,+0000041,-0000107,+0004160,-0000772,+0000478,-0002330,14:56:50.424993
0.202719,+0000032,-0000040,-0000008,+0000030,-0000081,+0004158,-0000772,+0000478,-0002330,14:56:50.424993
0.203052,+0000005,-0000016,-0000011,+0000050,-0000094,+0004146,-0000772,+0000478,-0002330,14:56:50.424993
0.203385,-0000014,-0000002,-0000002,+0000025,-0000088,+0004152,-0000792,+0000474,-0002332,14:56:50.424993
0.203718,+0000011,-0000015,-0000017,+0000050,-0000096,+0004154,-0000792,+0000474,-0002332,14:56:50.424993
0.204051,+0000016,-0000031,-0000007,+0000054,-0000085,+0004157,-0000792,+0000474,-0002332,14:56:50.424993
0.204384,+0000022,-0000029,-0000008,+0000050,-0000076,+0004154,-0000776,+0000462,-0002321,14:56:50.424993
0.204717,+0000029,-0000043,-0000011,+0000049,-0000103,+0004152,-0000776,+0000462,-0002321,14:56:50.424993
0.205050,+0000005,-0000021,-0000011,+0000047,-0000084,+0004143,-0000776,+0000462,-0002321,14:56:50.424993
0.205383,+0000014,-0000005,-0000002,+0000059,-0000105,+0004152,-0000780,+0000476,-0002325,14:56:50.424993
0.205716,+0000013,-0000032,-0000002,+0000059,-0000121,+0004147,-0000780,+0000476,-0002325,14:56:50.424993
0.206049,+0000008,-0000029,-0000004,+0000056,-0000112,+0004155,-0000780,+0000476,-0002325,14:56:50.426002
0.206382,+0000033,-0000035,-0000023,+0000050,-0000114,+0004145,-0000794,+0000472,-0002332,14:56:50.426002
0.206715,+0000016,-0000029,-0000007,+0000034,-0000087,+0004145,-0000794,+0000472,-0002332,14:56:50.426002
0.207048,+0000000,-0000013,-0000012,+0000048,-0000106,+0004148,-0000794,+0000472,-0002332,14:56:50.426002
0.207381,+0000011,-0000029,-0000007,+0000062,-0000098,+0004161,-0000786,+0000460,-0002342,14:56:50.426002
0.207714,+0000002,-0000013,-0000010,+0000067,-0000085,+0004170,-0000786,+0000460,-0002342,14:56:50.426002
0.208047,+0000019,-0000036,+0000002,+0000042,-0000085,+0004162,-0000786,+0000460,-0002342,14:56:50.426002
0.208380,+0000002,-0000045,-0000019,+0000039,-0000078,+0004142,-0000796,+0000480,-0002328,14:56:50.426002
0.208713,+0000014,-0000018,-0000010,+0000054,-0000098,+0004139,-0000796,+0000480,-0002328,14:56:50.426002
0.209046,+0000011,-0000023,+0000003,+0000044,-0000077,+0004163,-0000796,+0000480,-0002328,14:56:50.426002
0.209379,-0000001,+0000003,-0000015,+0000059,-0000110,+0004138,-0000788,+0000482,-0002327,14:56:50.426002
0.209743,+0000013,-0000018,-0000013,+0000025,-0000093,+0004157,-0000788,+0000482,-0002327,14:56:50.426002
0.210046,+0000013,-0000018,-0000018,+0000030,-0000087,+0004160,-0000788,+0000482,-0002327,14:56:50.426002
0.210378,+0000003,-0000015,+0000004,+0000050,-0000098,+0004159,-0000796,+0000472,-0002336,14:56:50.426002
0.210711,+0000000,-0000028,-0000014,+0000041,-0000118,+0004156,-0000796,+0000472,-0002336,14:56:50.426002
0.211044,+0000022,-0000027,-0000016,+0000044,-0000093,+0004132,-0000796,+0000472,-0002336,14:56:50.479689
0.211378,-0000006,+0000000,-0000005,+0000051,-0000082,+0004156,-0000798,+0000488,-0002292,14:56:50.479689
0.211715,+0000010,-0000007,-0000005,+0000029,-0000096,+0004174,-0000798,+0000488,-0002292,14:56:50.479689
0.212050,+0000013,-0000016,+0000001,+0000054,-0000077,+0004161,-0000798,+0000488,-0002292,14:56:50.479689
0.212523,+0000014,-0000029,-0000020,+0000066,-0000102,+0004159,-0000788,+0000476,-0002324,14:56:50.479689
0.212805,+0000033,-0000047,-0000020,+0000059,-0000092,+0004157,-0000788,+0000476,-0002324,14:56:50.479689
0.213359,+0000005,-0000027,-0000008,+0000050,-0000095,+0004138,-0000788,+0000476,-0002324,14:56:50.479689
0.213551,+0000022,-0000027,-0000008,+0000050,-0000095,+0004138,-0000788,+0000474,-0002338,14:56:50.479689
0.213808,+0000000,-0000002,-0000005,+0000055,-0000091,+0004157,-0000788,+0000474,-0002338,14:56:50.479689
0.214041,+0000014,-0000019,-0000013,+0000045,-0000105,+0004146,-0000788,+0000474,-0002338,14:56:50.479689
0.214376,+0000016,-0000035,-0000012,+0000051,-0000089,+0004148,-0000766,+0000474,-0002307,14:56:50.479689
0.214841,+0000015,+0000003,-0000008,+0000044,-0000092,+0004165,-0000766,+0000474,-0002307,14:56:50.479689
0.215040,+0000015,+0000003,-0000008,+0000033,-0000100,+0004157,-0000766,+0000474,-0002307,14:56:50.479689
0.215611,+0000019,-0000032,+0000003,+0000040,-0000095,+0004147,-0000772,+0000484,-0002316,14:56:50.479689
0.215923,+0000013,+0000000,-0000008,+0000043,-0000093,+0004129,-0000772,+0000484,-0002316,14:56:50.479689
0.216064,+0000013,+0000000,-0000008,+0000043,-0000093,+0004129,-0000772,+0000484,-0002316,14:56:50.479689
0.216374,-0000011,-0000007,-0000007,+0000042,-0000078,+0004137,-0000784,+0000472,-0002323,14:56:50.479689
0.216706,+0000019,-0000016,-0000005,+0000045,-0000080,+0004163,-0000784,+0000472,-0002323,14:56:50.479689
0.217039,-0000005,+0000003,+0000008,+0000054,-0000092,+0004150,-0000784,+0000472,-0002323,14:56:50.479689
0.217371,+0000011,-0000011,-0000008,+0000052,-0000082,+0004160,-0000780,+0000482,-0002316,14:56:50.479689
0.217706,+0000019,-0000038,-0000008,+0000037,-0000076,+0004156,-0000780,+0000482,-0002316,14:56:50.479689
0.218038,+0000024,-0000039,-0000013,+0000032,-0000086,+0004149,-0000780,+0000482,-0002316,14:56:50.479689
0.218370,+0000016,-0000040,-0000005,+0000044,-0000088,+0004153,-0000776,+0000480,-0002312,14:56:50.479689
0.218704,+0000005,-0000023,-0000011,+0000055,-0000090,+0004153,-0000776,+0000480,-0002312,14:56:50.479689
0.219036,+0000016,-0000019,+0000004,+0000033,-0000086,+0004146,-0000776,+0000480,-0002312,14:56:50.479689
0.219370,+0000009,-0000003,-0000015,+0000033,-0000082,+0004134,-0000782,+0000476,-0002351,14:56:50.479689
0.219705,+0000010,-0000021,-0000013,+0000038,-0000109,+0004144,-0000782,+0000476,-0002351,14:56:50.479689
0.220035,+0000013,-0000042,-0000002,+0000036,-0000082,+0004140,-0000782,+0000476,-0002351,14:56:50.479689
0.220368,+0000016,-0000018,-0000008,+0000034,-0000102,+0004158,-0000774,+0000482,-0002333,14:56:50.479689
0.220701,+0000015,-0000007,-0000012,+0000046,-0000087,+0004146,-0000774,+0000482,-0002333,14:56:50.479689
0.221034,-0000006,-0000014,-0000007,+0000057,-0000078,+0004157,-0000774,+0000482,-0002333,14:56:50.479689
0.221367,+0000016,-0000016,-0000013,+0000039,-0000096,+0004156,-0000782,+0000478,-0002325,14:56:50.479689
0.221700,+0000028,-0000032,-0000021,+0000044,-0000099,+0004162,-0000782,+0000478,-0002325,14:56:50.479689
0.222033,+0000015,-0000028,-0000016,+0000051,-0000077,+0004136,-0000782,+0000478,-0002325,14:56:50.479689
0.222366,+0000013,-0000032,-0000012,+0000037,-0000089,+0004153,-0000782,+0000472,-0002335,14:56:50.479689
0.222699,+0000013,-0000013,-0000011,+0000046,-0000076,+0004162,-0000782,+0000472,-0002335,14:56:50.479689
0.223032,+0000003,-0000005,-0000013,+0000031,-0000087,+0004140,-0000782,+0000472,-0002335,14:56:50.479689
0.223365,+0000011,-0000019,+0000000,+0000042,-0000085,+0004142,-0000788,+0000464,-0002311,14:56:50.479689
0.223698,+0000015,-0000032,-0000010,+0000039,-0000104,+0004165,-0000788,+0000464,-0002311,14:56:50.479689
0.224031,+0000021,-0000031,-0000005,+0000061,-0000099,+0004151,-0000788,+0000464,-0002311,14:56:50.479689
0.224364,+0000019,-0000037,-0000013,+0000047,-0000094,+0004157,-0000762,+0000466,-0002324,14:56:50.479689
0.224697,+0000003,-0000021,-0000017,+0000059,-0000085,+0004159,-0000762,+0000466,-0002324,14:56:50.479689
0.225030,+0000002,-0000003,-0000004,+0000044,-0000096,+0004154,-0000762,+0000466,-0002324,14:56:50.479689
0.225363,+0000002,-0000018,-0000010,+0000045,-0000092,+0004162,-0000772,+0000480,-0002326,14:56:50.479689
0.225696,+0000022,-0000027,-0000003,+0000047,-0000069,+0004151,-0000772,+0000480,-0002326,14:56:50.479689
0.226029,+0000035,-0000039,-0000019,+0000044,-0000077,+0004158,-0000772,+0000480,-0002326,14:56:50.479689
0.226362,+0000011,-0000027,-0000010,+0000066,-0000095,+0004142,-0000788,+0000470,-0002329,14:56:50.479689
0.226695,+0000002,-0000008,+0000002,+0000047,-0000090,+0004156,-0000788,+0000470,-0002329,14:56:50.479689
0.227028,+0000024,-0000026,-0000019,+0000058,-0000068,+0004166,-0000788,+0000470,-0002329,14:56:50.479689
0.227361,+0000014,-0000022,-0000019,+0000039,-0000105,+0004151,-0000780,+0000464,-0002329,14:56:50.479689
0.227694,+0000019,-0000031,+0000003,+0000064,-0000093,+0004144,-0000780,+0000464,-0002329,14:56:50.479689
0.228027,+0000025,-0000034,-0000011,+0000056,-0000094,+0004146,-0000780,+0000464,-0002329,14:56:50.479689
0.228360,+0000022,-0000039,-0000018,+0000054,-0000091,+0004156,-0000774,+0000470,-0002309,14:56:50.479689
0.228693,+0000002,-0000018,-0000004,+0000044,-0000097,+0004154,-0000774,+0000470,-0002309,14:56:50.479689
0.229026,+0000002,-0000010,-0000007,+0000049,-0000087,+0004151,-0000774,+0000470,-0002309,14:56:50.479689
0.229359,+0000006,-0000027,+0000004,+0000037,-0000093,+0004152,-0000784,+0000480,-0002303,14:56:50.480696
0.229692,+0000022,-0000029,-0000010,+0000051,-0000103,+0004155,-0000784,+0000480,-0002303,14:56:50.480696
0.230025,+0000022,-0000040,-0000007,+0000048,-0000067,+0004157,-0000784,+0000480,-0002303,14:56:50.480696
0.230358,+0000010,-0000022,-0000011,+0000049,-0000088,+0004175,-0000784,+0000478,-0002323,14:56:50.480696
0.230691,-0000006,+0000001,-0000007,+0000046,-0000090,+0004137,-0000784,+0000478,-0002323,14:56:50.480696
0.231024,+0000015,-0000016,-0000008,+0000046,-0000105,+0004135,-0000784,+0000478,-0002323,14:56:50.480696
0.231357,+0000007,-0000040,-0000013,+0000047,-0000089,+0004136,-0000786,+0000488,-0002324,14:56:50.480696
0.231690,+0000029,-0000029,-0000007,+0000035,-0000092,+0004157,-0000786,+0000488,-0002324,14:56:50.480696
0.232023,+0000017,-0000042,-0000007,+0000046,-0000064,+0004159,-0000786,+0000488,-0002324,14:56:50.480696
0.232356,+0000014,-0000023,-0000016,+0000052,-0000098,+0004140,-0000788,+0000454,-0002326,14:56:50.480696
0.232689,-0000003,-0000008,+0000003,+0000041,-0000104,+0004137,-0000788,+0000454,-0002326,14:56:50.480696
0.233022,+0000026,-0000019,-0000011,+0000048,-0000089,+0004140,-0000788,+0000454,-0002326,14:56:50.480696
0.233355,+0000004,-0000024,+0000000,+0000037,-0000092,+0004135,-0000804,+0000472,-0002277,14:56:50.480696
0.233688,+0000021,-0000032,-0000017,+0000037,-0000090,+0004154,-0000804,+0000472,-0002277,14:56:50.480696
0.234021,+0000024,-0000012,-0000007,+0000049,-0000091,+0004169,-0000804,+0000472,-0002277,14:56:50.480696
0.234354,+0000000,-0000010,+0000001,+0000057,-0000093,+0004149,-0000794,+0000464,-0002310,14:56:50.480696
0.234687,+0000018,-0000018,-0000019,+0000039,-0000082,+0004155,-0000794,+0000464,-0002310,14:56:50.480696
0.235020,+0000003,-0000019,-0000004,+0000050,-0000091,+0004174,-0000794,+0000464,-0002310,14:56:50.480696
0.235353,+0000013,-0000032,-0000004,+0000041,-0000092,+0004155,-0000806,+0000470,-0002301,14:56:50.480696
0.235686,+0000022,-0000051,-0000024,+0000036,-0000082,+0004170,-0000806,+0000470,-0002301,14:56:50.480696
0.236019,+0000016,-0000027,-0000012,+0000033,-0000108,+0004152,-0000806,+0000470,-0002301,14:56:50.480696
0.236352,+0000011,-0000015,+0000006,+0000032,-0000092,+0004130,-0000776,+0000484,-0002317,14:56:50.480696
0.236685,-0000008,-0000013,-0000011,+0000051,-0000092,+0004148,-0000776,+0000484,-0002317,14:56:50.480696
0.237018,+0000024,-0000026,-0000010,+0000058,-0000078,+0004148,-0000776,+0000484,-0002317,14:56:50.480696
0.237351,+0000006,-0000018,-0000008,+0000040,-0000099,+0004167,-0000794,+0000466,-0002307,14:56:50.480696
0.237684,+0000011,-0000031,-0000018,+0000043,-0000085,+0004162,-0000794,+0000466,-0002307,14:56:50.480696
0.238017,+0000028,-0000021,-0000008,+0000047,-0000090,+0004128,-0000794,+0000466,-0002307,14:56:50.480696
0.238350,+0000005,-0000013,-0000008,+0000033,-0000093,+0004135,-0000790,+0000486,-0002325,14:56:50.480696
0.238683,+0000010,-0000005,-0000002,+0000049,-0000074,+0004168,-0000790,+0000486,-0002325,14:56:50.480696
0.239016,+0000008,-0000021,+0000007,+0000055,-0000110,+0004148,-0000790,+0000486,-0002325,14:56:50.480696
0.239349,+0000013,-0000030,-0000011,+0000048,-0000090,+0004157,-0000790,+0000496,-0002324,14:56:50.480696
0.239682,+0000025,-0000043,-0000011,+0000051,-0000092,+0004160,-0000790,+0000496,-0002324,14:56:50.480696
0.240015,+0000010,-0000019,-0000016,+0000044,-0000064,+0004174,-0000790,+0000496,-0002324,14:56:50.480696
0.240348,+0000008,-0000024,-0000007,+0000019,-0000088,+0004149,-0000770,+0000476,-0002331,14:56:50.480696
0.240681,+0000008,-0000012,-0000008,+0000066,-0000094,+0004160,-0000770,+0000476,-0002331,14:56:50.480696
0.241014,+0000025,-0000013,+0000000,+0000031,-0000100,+0004163,-0000770,+0000476,-0002331,14:56:50.480696
0.241347,+0000005,-0000039,-0000014,+0000043,-0000094,+0004160,-0000778,+0000480,-0002300,14:56:50.480696
0.241680,+0000023,-0000027,-0000002,+0000042,-0000107,+0004157,-0000778,+0000480,-0002300,14:56:50.480696
0.242013,+0000007,-0000016,-0000007,+0000067,-0000095,+0004160,-0000778,+0000480,-0002300,14:56:50.480696
0.242346,+0000021,-0000014,-0000027,+0000039,-0000082,+0004160,-0000800,+0000482,-0002297,14:56:50.480696
0.242679,+0000021,-0000023,-0000016,+0000028,-0000082,+0004155,-0000800,+0000482,-0002297,14:56:50.480696
0.243012,+0000016,-0000012,+0000003,+0000049,-0000086,+0004140,-0000800,+0000482,-0002297,14:56:50.480696
0.243345,+0000023,-0000045,-0000007,+0000036,-0000099,+0004152,-0000790,+0000470,-0002308,14:56:50.480696
0.243678,+0000017,-0000034,-0000008,+0000031,-0000074,+0004138,-0000790,+0000470,-0002308,14:56:50.480696
0.244011,+0000032,-0000026,-0000018,+0000041,-0000104,+0004147,-0000790,+0000470,-0002308,14:56:50.480696
0.244344,+0000006,-0000008,-0000011,+0000038,-0000087,+0004126,-0000782,+0000474,-0002339,14:56:50.480696
0.244677,+0000009,-0000019,+0000003,+0000052,-0000084,+0004161,-0000782,+0000474,-0002339,14:56:50.480696
0.245010,+0000005,-0000018,-0000013,+0000055,-0000099,+0004151,-0000782,+0000474,-0002339,14:56:50.480696
0.245343,+0000026,-0000040,-0000008,+0000044,-0000098,+0004155,-0000786,+0000478,-0002320,14:56:50.480696
0.245676,+0000014,-0000037,-0000019,+0000060,-0000091,+0004138,-0000786,+0000478,-0002320,14:56:50.480696
0.246009,+0000013,-0000024,-0000013,+0000051,-0000103,+0004168,-0000786,+0000478,-0002320,14:56:50.480696
0.246342,-0000002,+0000000,+0000001,+0000052,-0000104,+0004174,-0000774,+0000484,-0002336,14:56:50.480696
0.246675,+0000010,-0000026,-0000005,+0000061,-0000077,+0004150,-0000774,+0000484,-0002336,14:56:50.480696
0.247008,+0000019,-0000024,+0000001,+0000040,-0000082,+0004164,-0000774,+0000484,-0002336,14:56:50.481687
0.247341,+0000037,-0000037,-0000013,+0000040,-0000079,+0004158,-0000786,+0000468,-0002313,14:56:50.481687
0.247674,+0000005,-0000011,-0000010,+0000061,-0000082,+0004155,-0000786,+0000468,-0002313,14:56:50.481687
0.248007,+0000010,-0000034,-0000018,+0000052,-0000082,+0004170,-0000786,+0000468,-0002313,14:56:50.481687
0.248340,+0000008,-0000011,+0000012,+0000056,-0000105,+0004137,-0000790,+0000478,-0002316,14:56:50.481687
0.248673,+0000013,-0000021,-0000015,+0000055,-0000097,+0004163,-0000790,+0000478,-0002316,14:56:50.481687
0.249006,+0000009,-0000018,+0000000,+0000050,-0000096,+0004131,-0000790,+0000478,-0002316,14:56:50.481687
0.249339,+0000020,-0000034,+0000001,+0000062,-0000079,+0004144,-0000774,+0000466,-0002357,14:56:50.481687
0.249672,+0000023,-0000034,-0000019,+0000036,-0000082,+0004136,-0000774,+0000466,-0002357,14:56:50.481687
0.250005,+0000011,-0000011,-0000008,+0000039,-0000102,+0004154,-0000774,+0000466,-0002357,14:56:50.481687
0.250338,-0000004,-0000021,-0000004,+0000028,-0000106,+0004137,-0000782,+0000472,-0002318,14:56:50.481687
0.250671,+0000013,-0000007,-0000010,+0000043,-0000090,+0004139,-0000782,+0000472,-0002318,14:56:50.481687
0.251004,+0000014,-0000029,+0000008,+0000046,-0000092,+0004173,-0000782,+0000472,-0002318,14:56:50.481687
0.251337,+0000016,-0000029,-0000015,+0000056,-0000082,+0004163,-0000790,+0000482,-0002318,14:56:50.481687
0.251670,+0000013,-0000039,-0000008,+0000060,-0000098,+0004160,-0000790,+0000482,-0002318,14:56:50.481687
0.252003,+0000013,-0000013,-0000013,+0000065,-0000104,+0004151,-0000790,+0000482,-0002318,14:56:50.481687
0.252336,+0000000,-0000011,-0000011,+0000047,-0000073,+0004138,-0000766,+0000474,-0002314,14:56:50.481687
0.252669,+0000019,-0000021,-0000002,+0000067,-0000075,+0004160,-0000766,+0000474,-0002314,14:56:50.481687
0.253002,+0000022,-0000026,-0000005,+0000041,-0000099,+0004145,-0000766,+0000474,-0002314,14:56:50.481687
0.253335,+0000024,-0000042,-0000024,+0000043,-0000101,+0004160,-0000774,+0000472,-0002305,14:56:50.481687
0.253668,+0000016,-0000032,-0000018,+0000063,-0000087,+0004162,-0000774,+0000472,-0002305,14:56:50.481687
0.254001,+0000011,-0000013,-0000005,+0000044,-0000091,+0004159,-0000774,+0000472,-0002305,14:56:50.481687
0.254334,+0000002,-0000015,-0000004,+0000043,-0000085,+0004154,-0000778,+0000468,-0002318,14:56:50.481687
0.254667,+0000013,-0000022,-0000016,+0000066,-0000078,+0004148,-0000778,+0000468,-0002318,14:56:50.481687
0.255000,+0000008,-0000031,+0000004,+0000041,-0000103,+0004139,-0000778,+0000468,-0002318,14:56:50.481687
0.255333,+0000016,-0000047,-0000018,+0000054,-0000087,+0004142,-0000784,+0000466,-0002317,14:56:50.481687
0.255666,+0000022,-0000019,-0000021,+0000037,-0000088,+0004154,-0000784,+0000466,-0002317,14:56:50.481687
0.255999,+0000003,-0000021,+0000001,+0000041,-0000083,+0004159,-0000784,+0000466,-0002317,14:56:50.481687
0.256332,-0000008,-0000008,+0000011,+0000031,-0000081,+0004157,-0000788,+0000480,-0002298,14:56:50.481687
0.256665,+0000016,-0000026,-0000006,+0000031,-0000087,+0004151,-0000788,+0000480,-0002298,14:56:50.481687
0.256998,+0000028,-0000043,-0000010,+0000039,-0000106,+0004152,-0000788,+0000480,-0002298,14:56:50.481687
0.257331,+0000002,-0000026,-0000018,+0000043,-0000097,+0004165,-0000790,+0000488,-0002332,14:56:50.481687
0.257666,+0000010,-0000028,+0000006,+0000048,-0000104,+0004119,-0000790,+0000488,-0002332,14:56:50.481687
0.258002,-0000009,+0000003,-0000011,+0000058,-0000100,+0004143,-0000790,+0000488,-0002332,14:56:50.481687
0.258331,+0000017,-0000026,+0000000,+0000047,-0000094,+0004155,-0000784,+0000468,-0002316,14:56:50.481687
0.258663,+0000013,-0000023,-0000014,+0000045,-0000092,+0004165,-0000784,+0000468,-0002316,14:56:50.481687
0.258996,+0000028,-0000039,-0000010,+0000029,-0000084,+0004174,-0000784,+0000468,-0002316,14:56:50.481687
0.259329,+0000027,-0000044,-0000018,+0000048,-0000096,+0004164,-0000770,+0000474,-0002326,14:56:50.481687
0.259662,+0000013,-0000021,-0000021,+0000028,-0000096,+0004176,-0000770,+0000474,-0002326,14:56:50.481687
0.259995,-0000003,-0000010,-0000002,+0000050,-0000116,+0004164,-0000770,+0000474,-0002326,14:56:50.481687
0.260328,+0000007,-0000016,-0000013,+0000044,-0000106,+0004148,-0000770,+0000482,-0002339,14:56:50.481687
0.260661,+0000020,-0000029,-0000002,+0000052,-0000093,+0004144,-0000770,+0000482,-0002339,14:56:50.481687
0.260994,+0000026,-0000034,-0000007,+0000059,-0000087,+0004162,-0000770,+0000482,-0002339,14:56:50.481687
0.261329,+0000016,-0000031,-0000007,+0000060,-0000099,+0004158,-0000790,+0000480,-0002311,14:56:50.523172
0.261662,+0000003,-0000018,-0000011,+0000052,-0000096,+0004165,-0000790,+0000480,-0002311,14:56:50.523172
0.262000,+0000003,-0000020,-0000002,+0000025,-0000095,+0004144,-0000790,+0000480,-0002311,14:56:50.523172
0.262526,+0000007,-0000021,-0000007,+0000042,-0000094,+0004166,-0000782,+0000488,-0002301,14:56:50.523172
0.262821,+0000003,-0000013,-0000015,+0000043,-0000087,+0004149,-0000782,+0000488,-0002301,14:56:50.523172
0.262994,+0000003,-0000014,-0000016,+0000049,-0000082,+0004145,-0000782,+0000488,-0002301,14:56:50.523172
0.263499,+0000002,-0000006,+0000007,+0000040,-0000077,+0004143,-0000788,+0000484,-0002337,14:56:50.523172
0.263807,+0000008,-0000005,-0000014,+0000050,-0000103,+0004154,-0000788,+0000484,-0002337,14:56:50.523172
0.264270,+0000019,-0000024,-0000005,+0000043,-0000076,+0004149,-0000788,+0000484,-0002337,14:56:50.523172
0.264415,+0000024,-0000032,-0000007,+0000031,-0000094,+0004149,-0000784,+0000476,-0002316,14:56:50.523172
0.264661,+0000024,-0000040,-0000015,+0000038,-0000111,+0004156,-0000784,+0000476,-0002316,14:56:50.523172
0.264993,+0000024,-0000034,-0000012,+0000042,-0000087,+0004138,-0000784,+0000476,-0002316,14:56:50.523172
0.265328,+0000024,-0000028,-0000011,+0000027,-0000091,+0004164,-0000782,+0000484,-0002334,14:56:50.523172
0.265658,-0000006,-0000023,+0000010,+0000043,-0000100,+0004154,-0000782,+0000484,-0002334,14:56:50.523172
0.265989,+0000016,-0000032,-0000016,+0000048,-0000080,+0004164,-0000782,+0000484,-0002334,14:56:50.523172
0.266322,+0000013,-0000016,+0000001,+0000052,-0000100,+0004131,-0000776,+0000478,-0002315,14:56:50.523172
0.266655,+0000017,-0000024,+0000003,+0000057,-0000081,+0004153,-0000776,+0000478,-0002315,14:56:50.523172
0.266989,+0000017,-0000038,-0000013,+0000047,-0000092,+0004146,-0000776,+0000478,-0002315,14:56:50.523172
0.267321,+0000021,-0000026,-0000008,+0000037,-0000083,+0004154,-0000786,+0000472,-0002309,14:56:50.523172
0.267654,+0000015,-0000029,-0000005,+0000033,-0000086,+0004142,-0000786,+0000472,-0002309,14:56:50.523172
0.267988,+0000004,+0000003,-0000007,+0000045,-0000074,+0004155,-0000786,+0000472,-0002309,14:56:50.523172
0.268321,+0000002,-0000018,-0000001,+0000040,-0000076,+0004148,-0000788,+0000480,-0002340,14:56:50.523172
0.268653,+0000028,-0000038,-0000020,+0000029,-0000079,+0004149,-0000788,+0000480,-0002340,14:56:50.523172
0.268988,+0000022,-0000022,-0000011,+0000038,-0000072,+0004151,-0000788,+0000480,-0002340,14:56:50.523172
0.269319,+0000014,-0000024,-0000004,+0000050,-0000098,+0004140,-0000786,+0000484,-0002309,14:56:50.523172
0.269652,+0000010,-0000016,-0000011,+0000042,-0000085,+0004147,-0000786,+0000484,-0002309,14:56:50.523172
0.269985,+0000008,+0000000,+0000006,+0000034,-0000083,+0004152,-0000786,+0000484,-0002309,14:56:50.523172
0.270318,+0000022,-0000035,-0000023,+0000043,-0000078,+0004170,-0000768,+0000490,-0002288,14:56:50.523172
0.270651,+0000019,-0000034,-0000001,+0000032,-0000077,+0004144,-0000768,+0000490,-0002288,14:56:50.523172
0.270984,+0000024,-0000035,-0000019,+0000040,-0000074,+0004149,-0000768,+0000490,-0002288,14:56:50.523172
0.271317,+0000019,-0000024,-0000006,+0000047,-0000089,+0004150,-0000778,+0000472,-0002320,14:56:50.523172
0.271650,+0000006,+0000003,-0000006,+0000041,-0000107,+0004133,-0000778,+0000472,-0002320,14:56:50.523172
0.271983,+0000010,-0000007,+0000003,+0000063,-0000103,+0004160,-0000778,+0000472,-0002320,14:56:50.523172
0.272316,+0000016,-0000031,-0000011,+0000023,-0000087,+0004151,-0000788,+0000472,-0002337,14:56:50.524185
0.272649,+0000013,-0000035,-0000011,+0000034,-0000075,+0004139,-0000788,+0000472,-0002337,14:56:50.524185
0.272982,+0000030,-0000040,-0000014,+0000041,-0000097,+0004149,-0000788,+0000472,-0002337,14:56:50.524185
0.273315,+0000005,-0000021,-0000005,+0000045,-0000096,+0004138,-0000786,+0000478,-0002309,14:56:50.524185
0.273648,+0000008,-0000011,-0000004,+0000047,-0000092,+0004162,-0000786,+0000478,-0002309,14:56:50.524185
0.273981,+0000011,-0000020,-0000016,+0000047,-0000078,+0004168,-0000786,+0000478,-0002309,14:56:50.524185
0.274314,+0000013,-0000031,-0000002,+0000059,-0000089,+0004149,-0000770,+0000482,-0002320,14:56:50.524185
0.274647,+0000030,-0000043,-0000011,+0000028,-0000110,+0004153,-0000770,+0000482,-0002320,14:56:50.524185
0.274980,+0000003,-0000023,-0000010,+0000035,-0000091,+0004145,-0000770,+0000482,-0002320,14:56:50.524185
0.275313,+0000005,-0000018,-0000002,+0000030,-0000077,+0004153,-0000794,+0000492,-0002342,14:56:50.524185
0.275646,+0000003,-0000019,-0000013,+0000038,-0000076,+0004161,-0000794,+0000492,-0002342,14:56:50.524185
0.275979,+0000002,-0000014,-0000002,+0000055,-0000069,+0004155,-0000794,+0000492,-0002342,14:56:50.524185
0.276312,+0000024,-0000024,-0000005,+0000043,-0000114,+0004136,-0000770,+0000478,-0002321,14:56:50.524185
0.276645,+0000033,-0000038,-0000003,+0000046,-0000075,+0004162,-0000770,+0000478,-0002321,14:56:50.524185
0.276978,+0000010,-0000018,-0000005,+0000052,-0000089,+0004148,-0000770,+0000478,-0002321,14:56:50.524185
0.277311,+0000019,-0000034,-0000021,+0000035,-0000083,+0004128,-0000784,+0000480,-0002340,14:56:50.524185
0.277644,-0000009,-0000004,+0000004,+0000056,-0000083,+0004155,-0000784,+0000480,-0002340,14:56:50.524185
0.277977,+0000019,-0000019,-0000013,+0000063,-0000085,+0004158,-0000784,+0000480,-0002340,14:56:50.524185
0.278310,+0000013,-0000026,-0000008,+0000040,-0000075,+0004141,-0000778,+0000470,-0002319,14:56:50.524185
0.278643,+0000024,-0000029,-0000013,+0000065,-0000078,+0004124,-0000778,+0000470,-0002319,14:56:50.524185
0.278976,+0000015,-0000023,-0000011,+0000045,-0000081,+0004149,-0000778,+0000470,-0002319,14:56:50.524185
0.279309,+0000007,-0000029,-0000005,+0000045,-0000070,+0004140,-0000798,+0000486,-0002315,14:56:50.524185
0.279642,+0000006,-0000010,-0000008,+0000028,-0000113,+0004165,-0000798,+0000486,-0002315,14:56:50.524185
0.279975,+0000016,-0000018,-0000005,+0000042,-0000090,+0004169,-0000798,+0000486,-0002315,14:56:50.524185
0.280308,+0000021,-0000032,-0000005,+0000030,-0000093,+0004169,-0000792,+0000486,-0002325,14:56:50.524185
0.280641,+0000013,-0000024,-0000005,+0000038,-0000087,+0004167,-0000792,+0000486,-0002325,14:56:50.524185
0.280974,+0000021,-0000031,-0000015,+0000062,-0000073,+0004149,-0000792,+0000486,-0002325,14:56:50.524185
0.281307,+0000003,-0000013,+0000000,+0000054,-0000085,+0004163,-0000800,+0000472,-0002317,14:56:50.524185
0.281640,+0000010,-0000008,-0000007,+0000047,-0000108,+0004147,-0000800,+0000472,-0002317,14:56:50.524185
0.281973,+0000007,-0000008,+0000000,+0000040,-0000090,+0004122,-0000800,+0000472,-0002317,14:56:50.524185
0.282306,+0000017,-0000050,-0000019,+0000036,-0000091,+0004147,-0000784,+0000484,-0002322,14:56:50.524185
0.282639,+0000032,-0000016,+0000004,+0000040,-0000108,+0004132,-0000784,+0000484,-0002322,14:56:50.524185
0.282972,+0000015,-0000021,-0000019,+0000044,-0000084,+0004150,-0000784,+0000484,-0002322,14:56:50.524185
0.283305,+0000021,-0000016,-0000008,+0000054,-0000098,+0004147,-0000804,+0000472,-0002329,14:56:50.524185
0.283638,+0000013,-0000007,-0000003,+0000050,-0000064,+0004149,-0000804,+0000472,-0002329,14:56:50.524185
0.283971,+0000021,-0000031,-0000011,+0000062,-0000081,+0004164,-0000804,+0000472,-0002329,14:56:50.524185
0.284304,+0000018,-0000034,-0000005,+0000064,-0000095,+0004153,-0000782,+0000472,-0002348,14:56:50.524185
0.284637,+0000030,-0000037,-0000005,+0000030,-0000087,+0004148,-0000782,+0000472,-0002348,14:56:50.524185
0.284970,+0000022,-0000028,-0000016,+0000044,-0000120,+0004151,-0000782,+0000472,-0002348,14:56:50.524185
0.285303,+0000007,+0000006,-0000005,+0000023,-0000093,+0004157,-0000780,+0000466,-0002335,14:56:50.524185
0.285636,+0000007,-0000019,-0000012,+0000036,-0000092,+0004155,-0000780,+0000466,-0002335,14:56:50.524185
0.285969,+0000014,-0000021,-0000007,+0000056,-0000119,+0004143,-0000780,+0000466,-0002335,14:56:50.524185
0.286302,+0000010,-0000034,-0000008,+0000056,-0000091,+0004152,-0000788,+0000470,-0002334,14:56:50.524185
0.286635,+0000022,-0000026,-0000018,+0000046,-0000094,+0004149,-0000788,+0000470,-0002334,14:56:50.524185
0.286968,+0000016,-0000013,-0000016,+0000033,-0000103,+0004160,-0000788,+0000470,-0002334,14:56:50.524185
0.287301,+0000005,-0000021,-0000002,+0000041,-0000083,+0004158,-0000786,+0000464,-0002345,14:56:50.524185
0.287634,+0000013,-0000027,-0000015,+0000054,-0000088,+0004163,-0000786,+0000464,-0002345,14:56:50.524185
0.287967,+0000019,-0000029,-0000010,+0000057,-0000092,+0004139,-0000786,+0000464,-0002345,14:56:50.524185
0.288300,+0000018,-0000019,-0000005,+0000053,-0000091,+0004159,-0000784,+0000464,-0002336,14:56:50.524185
0.288633,+0000033,-0000018,-0000008,+0000063,-0000099,+0004150,-0000784,+0000464,-0002336,14:56:50.524185
0.288966,+0000016,-0000003,-0000008,+0000042,-0000102,+0004154,-0000784,+0000464,-0002336,14:56:50.524185
0.289299,+0000000,-0000023,-0000021,+0000048,-0000084,+0004181,-0000782,+0000480,-0002329,14:56:50.524185
0.289632,+0000019,-0000008,+0000003,+0000049,-0000081,+0004161,-0000782,+0000480,-0002329,14:56:50.524185
0.289965,+0000009,-0000037,-0000018,+0000051,-0000084,+0004159,-0000782,+0000480,-0002329,14:56:50.524185
0.290298,+0000022,-0000034,-0000016,+0000048,-0000095,+0004152,-0000788,+0000480,-0002293,14:56:50.524185
0.290631,+0000022,-0000026,-0000003,+0000050,-0000076,+0004149,-0000788,+0000480,-0002293,14:56:50.524185
0.290964,+0000002,-0000016,-0000012,+0000047,-0000092,+0004149,-0000788,+0000480,-0002293,14:56:50.524185
0.291297,+0000002,-0000022,-0000007,+0000022,-0000089,+0004160,-0000796,+0000474,-0002344,14:56:50.524185
0.291630,+0000010,-0000007,-0000008,+0000046,-0000084,+0004144,-0000796,+0000474,-0002344,14:56:50.524185
0.291963,+0000011,-0000026,-0000014,+0000048,-0000097,+0004164,-0000796,+0000474,-0002344,14:56:50.529189
0.292296,+0000019,-0000026,-0000008,+0000048,-0000085,+0004148,-0000768,+0000486,-0002316,14:56:50.529189
0.292629,+0000015,-0000018,+0000003,+0000020,-0000081,+0004154,-0000768,+0000486,-0002316,14:56:50.529189
0.292962,+0000029,-0000021,-0000021,+0000049,-0000088,+0004152,-0000768,+0000486,-0002316,14:56:50.529189
0.293295,-0000001,-0000002,-0000005,+0000048,-0000078,+0004143,-0000784,+0000472,-0002308,14:56:50.529189
0.293628,+0000000,-0000024,-0000013,+0000048,-0000072,+0004147,-0000784,+0000472,-0002308,14:56:50.529189
0.293961,+0000019,-0000039,-0000008,+0000040,-0000099,+0004169,-0000784,+0000472,-0002308,14:56:50.529189
0.294294,+0000011,-0000040,-0000006,+0000044,-0000090,+0004156,-0000790,+0000478,-0002323,14:56:50.529189
0.294627,+0000018,-0000039,-0000011,+0000058,-0000087,+0004138,-0000790,+0000478,-0002323,14:56:50.529189
0.294960,+0000003,-0000021,-0000013,+0000062,-0000081,+0004158,-0000790,+0000478,-0002323,14:56:50.529189
0.295293,+0000003,-0000010,-0000013,+0000064,-0000104,+0004161,-0000780,+0000470,-0002299,14:56:50.529189
0.295626,+0000014,-0000010,-0000005,+0000056,-0000068,+0004151,-0000780,+0000470,-0002299,14:56:50.529189
0.295959,+0000022,-0000053,-0000007,+0000039,-0000085,+0004156,-0000780,+0000470,-0002299,14:56:50.529189
0.296292,+0000024,-0000043,-0000010,+0000061,-0000084,+0004150,-0000778,+0000478,-0002328,14:56:50.529189
0.296625,+0000008,-0000029,-0000007,+0000042,-0000093,+0004145,-0000778,+0000478,-0002328,14:56:50.529189
0.296958,+0000010,-0000015,-0000015,+0000030,-0000074,+0004151,-0000778,+0000478,-0002328,14:56:50.529189
0.297291,+0000008,-0000019,+0000000,+0000060,-0000081,+0004159,-0000794,+0000484,-0002325,14:56:50.529189
0.297624,+0000011,-0000031,-0000008,+0000050,-0000086,+0004140,-0000794,+0000484,-0002325,14:56:50.529189
0.297957,+0000024,-0000042,-0000016,+0000031,-0000105,+0004156,-0000794,+0000484,-0002325,14:56:50.529189
0.298290,+0000016,-0000026,-0000005,+0000034,-0000109,+0004150,-0000792,+0000476,-0002308,14:56:50.529189
0.298623,+0000019,-0000044,-0000016,+0000053,-0000097,+0004135,-0000792,+0000476,-0002308,14:56:50.529189
0.298956,+0000002,-0000010,-0000004,+0000045,-0000092,+0004159,-0000792,+0000476,-0002308,14:56:50.529189
0.299289,+0000005,-0000018,-0000002,+0000041,-0000096,+0004159,-0000784,+0000476,-0002348,14:56:50.529189
0.299622,+0000022,-0000042,-0000013,+0000054,-0000096,+0004124,-0000784,+0000476,-0002348,14:56:50.529189
0.299955,+0000008,-0000023,-0000004,+0000052,-0000091,+0004154,-0000784,+0000476,-0002348,14:56:50.529189
0.300288,+0000033,-0000048,-0000014,+0000031,-0000098,+0004148,-0000784,+0000474,-0002315,14:56:50.529189
0.300621,+0000018,-0000018,-0000008,+0000055,-0000087,+0004142,-0000784,+0000474,-0002315,14:56:50.529189
0.300954,+0000000,-0000013,+0000006,+0000045,-0000093,+0004160,-0000784,+0000474,-0002315,14:56:50.529189
0.301287,+0000010,-0000018,-0000013,+0000051,-0000090,+0004161,-0000772,+0000480,-0002340,14:56:50.529189
0.301620,+0000013,-0000028,-0000010,+0000045,-0000076,+0004151,-0000772,+0000480,-0002340,14:56:50.529189
0.301953,+0000015,-0000034,-0000008,+0000023,-0000063,+0004147,-0000772,+0000480,-0002340,14:56:50.529189
0.302286,+0000024,-0000018,-0000018,+0000055,-0000068,+0004165,-0000800,+0000474,-0002310,14:56:50.529189
0.302619,+0000011,-0000018,-0000003,+0000041,-0000085,+0004164,-0000800,+0000474,-0002310,14:56:50.529189
0.302952,-0000014,-0000018,-0000002,+0000052,-0000080,+0004131,-0000800,+0000474,-0002310,14:56:50.529189
0.303285,+0000027,-0000020,-0000013,+0000044,-0000097,+0004152,-0000798,+0000464,-0002307,14:56:50.529189
0.303618,+0000003,-0000027,-0000013,+0000042,-0000086,+0004148,-0000798,+0000464,-0002307,14:56:50.529189
0.303951,+0000029,-0000029,-0000013,+0000053,-0000096,+0004137,-0000798,+0000464,-0002307,14:56:50.529189
0.304284,+0000003,-0000035,-0000010,+0000042,-0000107,+0004139,-0000792,+0000464,-0002305,14:56:50.530186
0.304617,+0000010,-0000012,-0000008,+0000055,-0000079,+0004163,-0000792,+0000464,-0002305,14:56:50.530186
0.304950,+0000008,-0000013,-0000011,+0000051,-0000086,+0004145,-0000792,+0000464,-0002305,14:56:50.530186
0.305283,+0000008,-0000027,+0000001,+0000050,-0000092,+0004142,-0000780,+0000478,-0002312,14:56:50.530186
0.305616,+0000007,-0000024,-0000010,+0000049,-0000096,+0004164,-0000780,+0000478,-0002312,14:56:50.530186
0.305949,+0000021,-0000039,-0000010,+0000059,-0000085,+0004144,-0000780,+0000478,-0002312,14:56:50.530186
0.306282,+0000010,-0000021,-0000007,+0000050,-0000085,+0004133,-0000776,+0000482,-0002310,14:56:50.530186
0.306615,-0000004,-0000026,-0000007,+0000053,-0000084,+0004129,-0000776,+0000482,-0002310,14:56:50.530186
0.306948,+0000011,-0000010,-0000008,+0000043,-0000076,+0004165,-0000776,+0000482,-0002310,14:56:50.530186
0.307281,-0000001,-0000015,-0000003,+0000022,-0000090,+0004153,-0000790,+0000476,-0002317,14:56:50.530186
0.307614,+0000009,-0000029,+0000000,+0000056,-0000105,+0004125,-0000790,+0000476,-0002317,14:56:50.530186
0.307947,+0000017,-0000048,-0000015,+0000066,-0000110,+0004144,-0000790,+0000476,-0002317,14:56:50.530186
0.308280,+0000006,-0000016,-0000007,+0000047,-0000103,+0004144,-0000770,+0000478,-0002305,14:56:50.530186
0.308613,+0000027,-0000028,-0000005,+0000037,-0000083,+0004141,-0000770,+0000478,-0002305,14:56:50.530186
0.308946,-0000004,-0000007,-0000010,+0000047,-0000121,+0004171,-0000770,+0000478,-0002305,14:56:50.530186
0.309279,+0000002,-0000011,+0000000,+0000058,-0000081,+0004143,-0000784,+0000460,-0002319,14:56:50.530186
0.309612,+0000024,-0000035,-0000010,+0000036,-0000111,+0004161,-0000784,+0000460,-0002319,14:56:50.530186
0.309945,+0000031,-0000040,-0000020,+0000056,-0000106,+0004172,-0000784,+0000460,-0002319,14:56:50.530186
0.310278,+0000013,-0000024,-0000005,+0000049,-0000098,+0004126,-0000774,+0000476,-0002342,14:56:50.530186
0.310611,+0000022,-0000015,-0000001,+0000048,-0000089,+0004141,-0000774,+0000476,-0002342,14:56:50.530186
0.310944,+0000009,+0000000,-0000007,+0000063,-0000098,+0004127,-0000774,+0000476,-0002342,14:56:50.530186
0.311279,+0000016,-0000029,-0000008,+0000056,-0000090,+0004132,-0000794,+0000472,-0002316,14:56:50.576391
0.311612,+0000025,-0000026,-0000008,+0000027,-0000087,+0004152,-0000794,+0000472,-0002316,14:56:50.576391
0.311949,+0000022,-0000048,-0000010,+0000046,-0000096,+0004156,-0000794,+0000472,-0002316,14:56:50.576391
0.312440,+0000010,-0000015,+0000000,+0000045,-0000090,+0004162,-0000788,+0000468,-0002306,14:56:50.576391
0.312728,+0000013,-0000023,-0000007,+0000062,-0000080,+0004152,-0000788,+0000468,-0002306,14:56:50.576391
0.313087,+0000014,-0000032,-0000003,+0000046,-0000088,+0004134,-0000788,+0000468,-0002306,14:56:50.576391
0.313476,-0000008,-0000007,+0000003,+0000071,-0000083,+0004149,-0000794,+0000462,-0002304,14:56:50.576391
0.313747,+0000005,-0000013,-0000002,+0000065,-0000097,+0004135,-0000794,+0000462,-0002304,14:56:50.576391
0.314093,+0000014,-0000032,-0000014,+0000041,-0000108,+0004145,-0000794,+0000462,-0002304,14:56:50.576391
0.314276,+0000011,-0000020,-0000002,+0000058,-0000108,+0004161,-0000794,+0000462,-0002304,14:56:50.576391
0.314608,+0000017,-0000031,-0000007,+0000049,-0000089,+0004145,-0000794,+0000462,-0002304,14:56:50.576391
0.314950,+0000011,-0000029,-0000003,+0000061,-0000087,+0004144,-0000794,+0000462,-0002304,14:56:50.576391
0.315288,+0000027,-0000026,-0000007,+0000050,-0000082,+0004151,-0000778,+0000480,-0002325,14:56:50.576391
0.315607,+0000008,-0000016,-0000001,+0000034,-0000099,+0004147,-0000778,+0000480,-0002325,14:56:50.576391
0.315940,+0000030,-0000014,+0000001,+0000042,-0000100,+0004128,-0000778,+0000480,-0002325,14:56:50.576391
0.316272,+0000013,-0000024,-0000018,+0000063,-0000114,+0004150,-0000782,+0000470,-0002339,14:56:50.576391
0.316709,+0000008,-0000008,-0000010,+0000051,-0000101,+0004163,-0000782,+0000470,-0002339,14:56:50.576391
0.316942,+0000014,-0000018,-0000002,+0000043,-0000089,+0004163,-0000782,+0000470,-0002339,14:56:50.576391
0.317272,+0000013,-0000034,-0000021,+0000049,-0000082,+0004143,-0000782,+0000476,-0002311,14:56:50.576391
0.317605,+0000018,-0000040,-0000016,+0000046,-0000097,+0004142,-0000782,+0000476,-0002311,14:56:50.576391
0.317937,+0000017,-0000026,-0000008,+0000054,-0000108,+0004138,-0000782,+0000476,-0002311,14:56:50.576391
0.318270,+0000017,-0000037,-0000011,+0000059,-0000086,+0004155,-0000780,+0000466,-0002335,14:56:50.576391
0.318603,+0000006,-0000008,-0000007,+0000044,-0000075,+0004147,-0000780,+0000466,-0002335,14:56:50.576391
0.318937,+0000017,-0000013,-0000013,+0000051,-0000086,+0004133,-0000780,+0000466,-0002335,14:56:50.576391
0.319275,+0000011,-0000036,-0000016,+0000053,-0000106,+0004151,-0000786,+0000480,-0002308,14:56:50.576391
0.319604,+0000016,-0000011,-0000005,+0000041,-0000103,+0004150,-0000786,+0000480,-0002308,14:56:50.576391
0.319935,+0000008,-0000021,-0000003,+0000038,-0000082,+0004148,-0000786,+0000480,-0002308,14:56:50.576391
0.320268,-0000008,-0000005,-0000011,+0000034,-0000071,+0004171,-0000790,+0000464,-0002326,14:56:50.576391
0.320601,+0000024,-0000021,-0000006,+0000047,-0000067,+0004163,-0000790,+0000464,-0002326,14:56:50.576391
0.320934,+0000003,-0000007,+0000008,+0000033,-0000114,+0004138,-0000790,+0000464,-0002326,14:56:50.576391
0.321267,+0000036,-0000056,-0000021,+0000049,-0000093,+0004153,-0000786,+0000472,-0002322,14:56:50.576391
0.321600,+0000011,-0000024,-0000006,+0000050,-0000096,+0004162,-0000786,+0000472,-0002322,14:56:50.576391
0.321933,+0000027,-0000034,-0000015,+0000055,-0000092,+0004153,-0000786,+0000472,-0002322,14:56:50.576391
0.322266,+0000007,-0000015,-0000003,+0000047,-0000085,+0004165,-0000786,+0000472,-0002328,14:56:50.576391
0.322599,+0000008,-0000019,-0000016,+0000050,-0000101,+0004147,-0000786,+0000472,-0002328,14:56:50.576391
0.322932,+0000000,-0000024,-0000013,+0000064,-0000084,+0004158,-0000786,+0000472,-0002328,14:56:50.576391
0.323265,+0000022,-0000031,-0000004,+0000055,-0000086,+0004161,-0000786,+0000466,-0002334,14:56:50.576391
0.323598,+0000021,-0000034,-0000021,+0000047,-0000082,+0004156,-0000786,+0000466,-0002334,14:56:50.576391
0.323931,+0000005,-0000032,-0000012,+0000039,-0000062,+0004156,-0000786,+0000466,-0002334,14:56:50.576391
0.324264,+0000013,-0000005,-0000004,+0000062,-0000095,+0004165,-0000798,+0000486,-0002336,14:56:50.576391
0.324597,+0000011,-0000007,-0000013,+0000058,-0000058,+0004165,-0000798,+0000486,-0002336,14:56:50.576391
0.324930,+0000004,-0000017,+0000003,+0000056,-0000062,+0004171,-0000798,+0000486,-0002336,14:56:50.576391
0.325263,+0000032,-0000039,-0000010,+0000044,-0000087,+0004148,-0000790,+0000472,-0002330,14:56:50.576391
0.325596,+0000014,-0000034,-0000008,+0000041,-0000098,+0004154,-0000790,+0000472,-0002330,14:56:50.576391
0.325942,+0000022,-0000024,-0000010,+0000037,-0000094,+0004150,-0000790,+0000472,-0002330,14:56:50.576391
0.326262,+0000002,-0000016,-0000004,+0000054,-0000082,+0004154,-0000798,+0000484,-0002316,14:56:50.576391
0.326595,-0000003,-0000018,-0000002,+0000053,-0000071,+0004153,-0000798,+0000484,-0002316,14:56:50.576391
0.326941,+0000029,-0000026,-0000007,+0000048,-0000085,+0004166,-0000798,+0000484,-0002316,14:56:50.576391
0.327261,+0000002,-0000024,+0000000,+0000047,-0000073,+0004131,-0000774,+0000458,-0002316,14:56:50.576391
0.327594,+0000021,-0000034,-0000014,+0000045,-0000077,+0004161,-0000774,+0000458,-0002316,14:56:50.576391
0.327940,+0000017,-0000011,-0000010,+0000048,-0000100,+0004143,-0000774,+0000458,-0002316,14:56:50.576391
0.328260,+0000005,-0000018,+0000001,+0000057,-0000087,+0004132,-0000796,+0000470,-0002346,14:56:50.576391
0.328593,+0000014,-0000021,-0000017,+0000037,-0000098,+0004146,-0000796,+0000470,-0002346,14:56:50.576391
0.328939,+0000018,-0000032,-0000004,+0000042,-0000085,+0004157,-0000796,+0000470,-0002346,14:56:50.576391
0.329260,+0000011,-0000048,-0000018,+0000041,-0000107,+0004138,-0000792,+0000466,-0002331,14:56:50.576391
0.329592,+0000019,-0000021,-0000014,+0000034,-0000077,+0004139,-0000792,+0000466,-0002331,14:56:50.576391
0.329938,+0000019,-0000010,-0000010,+0000044,-0000078,+0004161,-0000792,+0000466,-0002331,14:56:50.576391
0.330260,+0000002,-0000018,-0000007,+0000046,-0000108,+0004133,-0000778,+0000478,-0002307,14:56:50.576391
0.330591,+0000016,-0000032,-0000008,+0000047,-0000095,+0004161,-0000778,+0000478,-0002307,14:56:50.576391
0.330931,+0000008,-0000024,+0000000,+0000038,-0000087,+0004160,-0000778,+0000478,-0002307,14:56:50.576391
0.331257,+0000033,-0000019,-0000015,+0000040,-0000108,+0004154,-0000784,+0000472,-0002323,14:56:50.576391
0.331590,+0000025,-0000027,-0000007,+0000068,-0000102,+0004148,-0000784,+0000472,-0002323,14:56:50.576391
0.331923,+0000007,-0000012,-0000014,+0000040,-0000075,+0004135,-0000784,+0000472,-0002323,14:56:50.576391
0.332257,+0000010,-0000016,-0000004,+0000057,-0000079,+0004146,-0000788,+0000460,-0002332,14:56:50.576391
0.332589,+0000003,-0000018,+0000003,+0000065,-0000077,+0004137,-0000788,+0000460,-0002332,14:56:50.576391
0.332922,+0000030,-0000040,-0000008,+0000043,-0000091,+0004156,-0000788,+0000460,-0002332,14:56:50.576391
0.333257,+0000017,-0000029,-0000011,+0000039,-0000087,+0004135,-0000810,+0000460,-0002325,14:56:50.577402
0.333588,+0000014,-0000035,-0000016,+0000042,-0000072,+0004152,-0000810,+0000460,-0002325,14:56:50.577402
0.333980,-0000001,-0000006,+0000000,+0000042,-0000084,+0004131,-0000810,+0000460,-0002325,14:56:50.577402
0.334259,+0000024,-0000019,-0000018,+0000041,-0000083,+0004130,-0000788,+0000478,-0002342,14:56:50.577402
0.334587,+0000008,-0000024,-0000008,+0000044,-0000082,+0004135,-0000788,+0000478,-0002342,14:56:50.577402
0.334920,+0000024,-0000042,-0000002,+0000053,-0000064,+0004151,-0000788,+0000478,-0002342,14:56:50.577402
0.335253,+0000032,-0000037,-0000018,+0000047,-0000083,+0004142,-0000790,+0000484,-0002321,14:56:50.577402
0.335586,+0000013,-0000018,-0000005,+0000048,-0000070,+0004150,-0000790,+0000484,-0002321,14:56:50.577402
0.335919,+0000010,-0000013,-0000011,+0000039,-0000071,+0004146,-0000790,+0000484,-0002321,14:56:50.577402
0.336253,+0000013,-0000013,-0000018,+0000039,-0000080,+0004136,-0000798,+0000482,-0002328,14:56:50.577402
0.336585,+0000005,-0000008,-0000008,+0000040,-0000081,+0004159,-0000798,+0000482,-0002328,14:56:50.577402
0.336918,+0000024,-0000023,-0000013,+0000038,-0000108,+0004151,-0000798,+0000482,-0002328,14:56:50.577402
0.337253,+0000018,-0000051,-0000008,+0000035,-0000080,+0004147,-0000792,+0000484,-0002316,14:56:50.577402
0.337584,+0000010,-0000016,-0000018,+0000051,-0000075,+0004156,-0000792,+0000484,-0002316,14:56:50.577402
0.337917,+0000014,-0000010,-0000007,+0000043,-0000082,+0004145,-0000792,+0000484,-0002316,14:56:50.577402
0.338253,+0000020,-0000012,-0000013,+0000053,-0000071,+0004148,-0000786,+0000486,-0002303,14:56:50.577402
0.338583,-0000003,-0000020,-0000005,+0000065,-0000093,+0004143,-0000786,+0000486,-0002303,14:56:50.577402
0.338916,+0000032,-0000047,+0000000,+0000049,-0000088,+0004141,-0000786,+0000486,-0002303,14:56:50.577402
0.339253,+0000011,-0000030,-0000016,+0000043,-0000082,+0004141,-0000804,+0000480,-0002308,14:56:50.577402
0.339582,+0000013,-0000029,+0000003,+0000055,-0000085,+0004159,-0000804,+0000480,-0002308,14:56:50.577402
0.339915,-0000004,+0000001,+0000001,+0000050,-0000078,+0004163,-0000804,+0000480,-0002308,14:56:50.577402
0.340253,+0000018,-0000013,-0000004,+0000050,-0000094,+0004161,-0000794,+0000482,-0002316,14:56:50.577402
0.340581,+0000008,-0000037,-0000007,+0000036,-0000094,+0004171,-0000794,+0000482,-0002316,14:56:50.577402
0.340914,+0000030,-0000039,-0000016,+0000029,-0000098,+0004161,-0000794,+0000482,-0002316,14:56:50.577402
0.341252,+0000018,-0000039,-0000010,+0000059,-0000091,+0004167,-0000790,+0000482,-0002299,14:56:50.577402
0.341580,-0000011,-0000012,-0000012,+0000050,-0000098,+0004147,-0000790,+0000482,-0002299,14:56:50.577402
0.341913,-0000011,+0000001,+0000011,+0000038,-0000086,+0004134,-0000790,+0000482,-0002299,14:56:50.577402
0.342251,+0000021,-0000031,-0000025,+0000042,-0000095,+0004149,-0000806,+0000478,-0002302,14:56:50.577402
0.342579,+0000007,-0000026,-0000013,+0000045,-0000100,+0004147,-0000806,+0000478,-0002302,14:56:50.577402
0.342912,+0000025,-0000037,-0000008,+0000056,-0000090,+0004136,-0000806,+0000478,-0002302,14:56:50.577402
0.343251,+0000011,-0000024,-0000016,+0000045,-0000070,+0004159,-0000778,+0000464,-0002316,14:56:50.577402
0.343578,-0000001,-0000014,-0000002,+0000042,-0000105,+0004167,-0000778,+0000464,-0002316,14:56:50.577402
0.343911,+0000002,-0000012,-0000007,+0000058,-0000082,+0004144,-0000778,+0000464,-0002316,14:56:50.577402
0.344250,+0000022,-0000018,-0000013,+0000042,-0000085,+0004159,-0000788,+0000484,-0002325,14:56:50.577402
0.344577,+0000003,-0000018,-0000002,+0000049,-0000110,+0004140,-0000788,+0000484,-0002325,14:56:50.577402
0.344910,+0000021,-0000032,-0000016,+0000066,-0000090,+0004140,-0000788,+0000484,-0002325,14:56:50.577402
0.345249,+0000030,-0000029,-0000003,+0000045,-0000089,+0004135,-0000780,+0000490,-0002334,14:56:50.577402
0.345576,+0000005,-0000015,-0000013,+0000054,-0000096,+0004135,-0000780,+0000490,-0002334,14:56:50.577402
0.345909,+0000007,-0000008,-0000011,+0000041,-0000071,+0004123,-0000780,+0000490,-0002334,14:56:50.577402
0.346248,+0000011,-0000016,+0000001,+0000061,-0000082,+0004139,-0000796,+0000496,-0002359,14:56:50.577402
0.346575,+0000022,-0000039,-0000005,+0000058,-0000108,+0004136,-0000796,+0000496,-0002359,14:56:50.577402
0.346908,+0000008,-0000024,-0000005,+0000040,-0000099,+0004158,-0000796,+0000496,-0002359,14:56:50.577402
0.347247,+0000030,-0000024,-0000018,+0000062,-0000082,+0004152,-0000800,+0000470,-0002338,14:56:50.577402
0.347574,+0000002,-0000024,-0000006,+0000054,-0000086,+0004166,-0000800,+0000470,-0002338,14:56:50.577402
0.347907,+0000010,-0000026,-0000008,+0000055,-0000091,+0004140,-0000800,+0000470,-0002338,14:56:50.577402
0.348246,+0000014,-0000012,+0000004,+0000041,-0000090,+0004157,-0000782,+0000470,-0002340,14:56:50.577402
0.348573,+0000024,-0000034,-0000011,+0000038,-0000084,+0004146,-0000782,+0000470,-0002340,14:56:50.580508
0.348906,+0000013,-0000029,-0000007,+0000032,-0000093,+0004160,-0000782,+0000470,-0002340,14:56:50.580508
0.349245,+0000015,-0000024,-0000011,+0000047,-0000079,+0004156,-0000784,+0000486,-0002349,14:56:50.580508
0.349572,+0000028,-0000018,-0000013,+0000042,-0000097,+0004142,-0000784,+0000486,-0002349,14:56:50.580508
0.349905,+0000013,-0000029,+0000001,+0000038,-0000093,+0004155,-0000784,+0000486,-0002349,14:56:50.580508
0.350244,+0000011,-0000023,+0000001,+0000054,-0000076,+0004130,-0000780,+0000466,-0002336,14:56:50.580508
0.350571,+0000019,-0000032,-0000005,+0000042,-0000086,+0004161,-0000780,+0000466,-0002336,14:56:50.581508
0.350904,+0000022,-0000031,-0000014,+0000047,-0000072,+0004177,-0000780,+0000466,-0002336,14:56:50.581508
0.351237,+0000007,-0000037,-0000002,+0000040,-0000081,+0004142,-0000796,+0000474,-0002333,14:56:50.581508
0.351570,+0000013,-0000013,-0000004,+0000039,-0000096,+0004153,-0000796,+0000474,-0002333,14:56:50.581508
0.351903,-0000003,-0000005,-0000002,+0000040,-0000080,+0004155,-0000796,+0000474,-0002333,14:56:50.581508
0.352236,+0000006,-0000021,-0000002,+0000034,-0000080,+0004143,-0000778,+0000458,-0002336,14:56:50.581508
0.352569,+0000030,-0000034,-0000013,+0000022,-0000093,+0004143,-0000778,+0000458,-0002336,14:56:50.581508
0.352902,+0000033,-0000035,-0000008,+0000039,-0000083,+0004150,-0000778,+0000458,-0002336,14:56:50.581508
0.353235,+0000014,-0000029,-0000005,+0000040,-0000089,+0004157,-0000788,+0000482,-0002315,14:56:50.581508
0.353568,-0000015,+0000004,+0000003,+0000065,-0000087,+0004170,-0000788,+0000482,-0002315,14:56:50.581508
0.353901,+0000010,-0000019,-0000010,+0000046,-0000076,+0004146,-0000788,+0000482,-0002315,14:56:50.581508
0.354234,+0000008,-0000029,-0000008,+0000036,-0000083,+0004152,-0000774,+0000472,-0002333,14:56:50.581508
0.354567,+0000019,-0000029,-0000010,+0000044,-0000071,+0004157,-0000774,+0000472,-0002333,14:56:50.581508
0.354900,+0000027,-0000031,-0000010,+0000042,-0000086,+0004147,-0000774,+0000472,-0002333,14:56:50.581508
0.355233,+0000000,-0000008,+0000008,+0000042,-0000090,+0004151,-0000780,+0000454,-0002366,14:56:50.581508
0.355566,+0000005,-0000015,-0000024,+0000035,-0000093,+0004150,-0000780,+0000454,-0002366,14:56:50.581508
0.355899,+0000005,-0000008,+0000004,+0000054,-0000094,+0004139,-0000780,+0000454,-0002366,14:56:50.581508
0.356232,+0000019,-0000024,-0000005,+0000047,-0000083,+0004154,-0000786,+0000476,-0002348,14:56:50.581508
0.356565,+0000016,-0000037,-0000013,+0000058,-0000089,+0004162,-0000786,+0000476,-0002348,14:56:50.581508
0.356898,+0000030,-0000013,-0000010,+0000040,-0000077,+0004160,-0000786,+0000476,-0002348,14:56:50.581508
0.357231,+0000008,-0000021,-0000013,+0000038,-0000103,+0004163,-0000812,+0000458,-0002312,14:56:50.581508
0.357564,+0000000,-0000010,-0000006,+0000059,-0000093,+0004156,-0000812,+0000458,-0002312,14:56:50.581508
0.357897,+0000021,-0000027,-0000015,+0000051,-0000092,+0004162,-0000812,+0000458,-0002312,14:56:50.581508
0.358230,+0000011,-0000027,+0000006,+0000039,-0000091,+0004150,-0000798,+0000458,-0002336,14:56:50.581508
0.358563,+0000036,-0000034,-0000005,+0000046,-0000100,+0004153,-0000798,+0000458,-0002336,14:56:50.581508
0.358896,+0000020,-0000031,-0000005,+0000043,-0000105,+0004163,-0000798,+0000458,-0002336,14:56:50.581508
0.359229,+0000015,-0000010,-0000005,+0000052,-0000076,+0004149,-0000808,+0000468,-0002310,14:56:50.581508
0.359562,+0000014,-0000023,-0000016,+0000051,-0000089,+0004129,-0000808,+0000468,-0002310,14:56:50.581508
0.359932,-0000005,-0000015,-0000003,+0000040,-0000118,+0004165,-0000808,+0000468,-0002310,14:56:50.581508
0.360228,+0000011,-0000018,-0000005,+0000014,-0000077,+0004157,-0000794,+0000470,-0002305,14:56:50.581508
0.360561,+0000007,-0000026,-0000005,+0000039,-0000074,+0004136,-0000794,+0000470,-0002305,14:56:50.581508
0.360894,+0000021,-0000016,-0000010,+0000038,-0000104,+0004132,-0000794,+0000470,-0002305,14:56:50.581508
0.361229,+0000010,-0000034,-0000008,+0000052,-0000078,+0004157,-0000794,+0000460,-0002312,14:56:50.624522
0.361560,+0000000,-0000008,-0000011,+0000038,-0000088,+0004182,-0000794,+0000460,-0002312,14:56:50.624522
0.361898,+0000021,-0000011,-0000010,+0000035,-0000076,+0004159,-0000794,+0000460,-0002312,14:56:50.624522
0.362522,+0000008,-0000015,-0000008,+0000038,-0000093,+0004164,-0000790,+0000464,-0002314,14:56:50.624522
0.362810,+0000014,-0000015,-0000014,+0000037,-0000119,+0004128,-0000790,+0000464,-0002314,14:56:50.624522
0.362948,+0000014,-0000015,-0000014,+0000037,-0000119,+0004128,-0000790,+0000464,-0002314,14:56:50.624522
0.363231,+0000005,-0000001,+0000005,+0000048,-0000112,+0004160,-0000794,+0000466,-0002315,14:56:50.624522
0.363560,+0000011,-0000027,-0000002,+0000048,-0000091,+0004145,-0000794,+0000466,-0002315,14:56:50.624522
0.363896,+0000002,-0000037,-0000008,+0000033,-0000090,+0004150,-0000794,+0000466,-0002315,14:56:50.624522
0.364226,+0000022,-0000029,-0000008,+0000033,-0000071,+0004145,-0000796,+0000474,-0002331,14:56:50.624522
0.364559,+0000021,-0000037,-0000024,+0000051,-0000094,+0004159,-0000796,+0000474,-0002331,14:56:50.625517
0.364894,+0000016,-0000013,-0000004,+0000056,-0000089,+0004166,-0000796,+0000474,-0002331,14:56:50.625517
0.365227,+0000010,-0000024,-0000005,+0000049,-0000071,+0004149,-0000790,+0000470,-0002332,14:56:50.625517
0.365558,+0000027,-0000037,-0000008,+0000041,-0000080,+0004164,-0000790,+0000470,-0002332,14:56:50.625517
0.365891,+0000022,-0000021,+0000004,+0000054,-0000083,+0004166,-0000790,+0000470,-0002332,14:56:50.627518
0.366223,+0000015,-0000043,-0000013,+0000059,-0000096,+0004163,-0000798,+0000484,-0002309,14:56:50.627518
0.366555,+0000027,-0000036,-0000008,+0000051,-0000096,+0004132,-0000798,+0000484,-0002309,14:56:50.627518
0.366889,+0000019,-0000027,-0000020,+0000052,-0000091,+0004154,-0000798,+0000484,-0002309,14:56:50.627518
0.367221,+0000005,-0000011,-0000013,+0000043,-0000083,+0004168,-0000790,+0000472,-0002312,14:56:50.627518
0.367554,+0000013,+0000000,+0000000,+0000052,-0000106,+0004166,-0000790,+0000472,-0002312,14:56:50.627518
0.367889,+0000021,-0000035,-0000011,+0000073,-0000084,+0004167,-0000790,+0000472,-0002312,14:56:50.627518
0.368220,+0000015,-0000029,-0000012,+0000053,-0000071,+0004153,-0000788,+0000460,-0002346,14:56:50.627518
0.368554,+0000029,-0000042,-0000014,+0000057,-0000105,+0004153,-0000788,+0000460,-0002346,14:56:50.627518
0.368886,+0000008,-0000011,-0000005,+0000051,-0000105,+0004151,-0000788,+0000460,-0002346,14:56:50.627518
0.369219,+0000018,-0000032,-0000011,+0000048,-0000098,+0004161,-0000778,+0000460,-0002338,14:56:50.627518
0.369552,+0000005,-0000015,-0000002,+0000052,-0000088,+0004142,-0000778,+0000460,-0002338,14:56:50.627518
0.369885,+0000024,-0000034,-0000010,+0000055,-0000082,+0004151,-0000778,+0000460,-0002338,14:56:50.627518
0.370218,+0000017,-0000034,-0000010,+0000063,-0000051,+0004150,-0000786,+0000460,-0002324,14:56:50.627518
0.370551,+0000019,-0000024,-0000011,+0000058,-0000082,+0004149,-0000786,+0000460,-0002324,14:56:50.627518
0.370884,+0000009,-0000007,-0000010,+0000046,-0000088,+0004150,-0000786,+0000460,-0002324,14:56:50.627518
0.371217,-0000004,-0000016,-0000010,+0000029,-0000093,+0004136,-0000796,+0000466,-0002320,14:56:50.627518
0.371550,+0000018,-0000018,+0000001,+0000060,-0000099,+0004158,-0000796,+0000466,-0002320,14:56:50.627518
0.371883,+0000005,-0000032,-0000007,+0000048,-0000103,+0004157,-0000796,+0000466,-0002320,14:56:50.627518
0.372216,+0000024,-0000037,-0000008,+0000051,-0000087,+0004154,-0000792,+0000470,-0002326,14:56:50.627518
0.372549,+0000011,-0000005,-0000010,+0000045,-0000062,+0004139,-0000792,+0000470,-0002326,14:56:50.627518
0.372882,+0000013,-0000027,-0000010,+0000037,-0000086,+0004140,-0000792,+0000470,-0002326,14:56:50.627518
0.373215,+0000005,-0000008,-0000008,+0000065,-0000084,+0004156,-0000794,+0000482,-0002311,14:56:50.627518
0.373548,+0000003,-0000010,-0000005,+0000026,-0000075,+0004135,-0000794,+0000482,-0002311,14:56:50.627518
0.373881,+0000027,-0000035,-0000013,+0000059,-0000094,+0004154,-0000794,+0000482,-0002311,14:56:50.627518
0.374214,+0000019,-0000024,-0000004,+0000062,-0000090,+0004155,-0000772,+0000460,-0002322,14:56:50.627518
0.374547,+0000016,-0000026,-0000014,+0000040,-0000073,+0004150,-0000772,+0000460,-0002322,14:56:50.627518
0.374880,+0000011,-0000019,-0000020,+0000026,-0000080,+0004145,-0000772,+0000460,-0002322,14:56:50.627518
0.375213,+0000008,-0000007,+0000003,+0000044,-0000094,+0004143,-0000786,+0000474,-0002331,14:56:50.627518
0.375546,-0000004,-0000013,-0000005,+0000049,-0000081,+0004165,-0000786,+0000474,-0002331,14:56:50.627518
0.375879,+0000024,-0000039,-0000007,+0000043,-0000093,+0004162,-0000786,+0000474,-0002331,14:56:50.629515
0.376212,+0000021,-0000037,-0000010,+0000030,-0000081,+0004143,-0000798,+0000460,-0002338,14:56:50.629515
0.376545,+0000000,-0000026,+0000001,+0000031,-0000104,+0004170,-0000798,+0000460,-0002338,14:56:50.629515
0.376878,+0000018,-0000016,-0000024,+0000049,-0000072,+0004153,-0000798,+0000460,-0002338,14:56:50.629515
