===BEGIN_METADATA===
"This CSV contains gyroscope, accelerometer, and magnetometer data synced with the test named below."
Test Name: 2026-07-07_150357_01,yyyy-mm-dd_hhmmss_{probe#/nano_id}
Calibrations: (not implemented yet)
===END_METADATA===
===BEGIN_DATA===
Time (sec),Gyro X,Gyro Y,Gyro Z,Accel X,Accel Y,Accel Z,Mag X,Mag Y,Mag Z,Processed_Time
0.000026,+0000000,-0000007,-0000008,+0000015,-0000087,+0004144,-0000620,+0000352,-0002411,15:04:01.621239
0.000358,+0000014,-0000012,-0000003,+0000048,-0000083,+0004153,-0000620,+0000352,-0002411,15:04:01.621239
0.000691,+0000019,-0000026,-0000013,+0000048,-0000108,+0004159,-0000704,+0000418,-0002303,15:04:01.621239
0.001024,+0000002,-0000032,-0000008,+0000053,-0000077,+0004168,-0000704,+0000418,-0002303,15:04:01.621239
0.001357,+0000033,-0000037,-0000016,+0000041,-0000081,+0004155,-0000704,+0000418,-0002303,15:04:01.621239
0.001690,+0000018,-0000023,-0000001,+0000043,-0000076,+0004153,-0000726,+0000406,-0002554,15:04:01.621239
0.002023,+0000002,-0000018,-0000014,+0000028,-0000087,+0004147,-0000726,+0000406,-0002554,15:04:01.621239
0.002356,-0000005,+0000003,+0000000,+0000046,-0000076,+0004164,-0000726,+0000406,-0002554,15:04:01.621239
0.002689,+0000024,-0000029,-0000004,+0000024,-0000089,+0004163,-0000714,+0000422,-0002318,15:04:01.621239
0.003022,+0000000,-0000034,-0000008,+0000059,-0000089,+0004152,-0000714,+0000422,-0002318,15:04:01.621239
0.003355,+0000035,-0000040,-0000018,+0000052,-0000076,+0004158,-0000714,+0000422,-0002318,15:04:01.621239
0.003688,+0000009,-0000026,-0000005,+0000049,-0000097,+0004171,-0000730,+0000422,-0002309,15:04:01.621239
0.004021,-0000006,-0000010,-0000003,+0000037,-0000094,+0004175,-0000730,+0000422,-0002309,15:04:01.621239
0.004354,+0000010,-0000003,-0000003,+0000010,-0000073,+0004146,-0000730,+0000422,-0002309,15:04:01.621239
0.004687,+0000010,-0000028,-0000021,+0000054,-0000082,+0004144,-0000732,+0000414,-0002342,15:04:01.621239
0.005020,+0000019,-0000031,-0000002,+0000059,-0000108,+0004159,-0000732,+0000414,-0002342,15:04:01.621239
0.005353,+0000024,-0000045,-0000027,+0000020,-0000090,+0004156,-0000732,+0000414,-0002342,15:04:01.621239
0.005686,+0000014,-0000007,-0000007,+0000045,-0000095,+0004151,-0000720,+0000412,-0002311,15:04:01.621239
0.006019,+0000005,-0000024,-0000004,+0000021,-0000096,+0004169,-0000720,+0000412,-0002311,15:04:01.621239
0.006352,+0000006,-0000026,-0000010,+0000045,-0000096,+0004161,-0000720,+0000412,-0002311,15:04:01.621239
0.006685,+0000014,-0000018,-0000008,+0000035,-0000090,+0004138,-0000736,+0000426,-0002325,15:04:01.621239
0.007018,+0000033,-0000037,-0000003,+0000022,-0000096,+0004149,-0000736,+0000426,-0002325,15:04:01.621239
0.007351,+0000019,-0000019,-0000013,+0000038,-0000101,+0004155,-0000736,+0000426,-0002325,15:04:01.621239
0.007684,+0000005,-0000019,-0000007,+0000034,-0000098,+0004157,-0000722,+0000400,-0002319,15:04:01.621239
0.008017,+0000005,-0000011,-0000005,+0000037,-0000097,+0004153,-0000722,+0000400,-0002319,15:04:01.621239
0.008350,+0000005,-0000010,+0000000,+0000024,-0000094,+0004149,-0000722,+0000400,-0002319,15:04:01.621239
0.008683,+0000029,-0000029,-0000011,+0000029,-0000106,+0004163,-0000724,+0000420,-0002314,15:04:01.621239
0.009016,+0000017,-0000029,-0000014,+0000054,-0000062,+0004167,-0000724,+0000420,-0002314,15:04:01.621239
0.009349,+0000013,-0000031,+0000004,+0000045,-0000090,+0004143,-0000724,+0000420,-0002314,15:04:01.621239
0.009682,+0000013,-0000023,-0000010,+0000036,-0000086,+0004150,-0000742,+0000406,-0002324,15:04:01.621239
0.010016,+0000010,-0000013,-0000010,+0000050,-0000079,+0004191,-0000742,+0000406,-0002324,15:04:01.621239
0.010348,+0000022,-0000012,-0000004,+0000050,-0000071,+0004158,-0000742,+0000406,-0002324,15:04:01.621239
0.010691,+0000024,-0000024,-0000011,+0000039,-0000088,+0004159,-0000734,+0000426,-0002297,15:04:01.621239
0.011202,+0000022,-0000026,-0000007,+0000023,-0000081,+0004144,-0000734,+0000426,-0002297,15:04:01.621239
0.011386,+0000014,-0000032,-0000010,+0000023,-0000081,+0004144,-0000734,+0000426,-0002297,15:04:01.621239
0.011740,+0000015,-0000018,+0000007,+0000035,-0000078,+0004158,-0000728,+0000412,-0002302,15:04:01.621239
0.012013,+0000014,-0000028,-0000016,+0000025,-0000072,+0004158,-0000728,+0000412,-0002302,15:04:01.621239
0.012440,+0000016,-0000021,-0000019,+0000038,-0000086,+0004152,-0000728,+0000412,-0002302,15:04:01.621239
0.012680,+0000014,-0000007,-0000006,+0000032,-0000095,+0004159,-0000718,+0000414,-0002325,15:04:01.621239
0.013012,+0000030,-0000045,-0000010,+0000027,-0000070,+0004171,-0000718,+0000414,-0002325,15:04:01.621239
0.013345,+0000008,-0000034,-0000011,+0000036,-0000086,+0004170,-0000718,+0000414,-0002325,15:04:01.621239
0.013680,+0000008,-0000008,-0000007,+0000037,-0000099,+0004159,-0000718,+0000416,-0002327,15:04:01.621239
0.014013,-0000001,-0000019,+0000001,+0000044,-0000086,+0004151,-0000718,+0000416,-0002327,15:04:01.621239
0.014345,+0000008,-0000012,+0000001,+0000048,-0000101,+0004164,-0000718,+0000416,-0002327,15:04:01.621239
0.014679,+0000025,-0000039,-0000016,+0000035,-0000082,+0004153,-0000722,+0000430,-0002291,15:04:01.621239
0.015010,+0000020,-0000015,+0000001,+0000030,-0000090,+0004163,-0000722,+0000430,-0002291,15:04:01.621239
0.015343,+0000031,-0000029,-0000005,+0000049,-0000082,+0004169,-0000722,+0000430,-0002291,15:04:01.621239
0.015676,+0000009,-0000021,-0000022,+0000043,-0000076,+0004164,-0000730,+0000402,-0002330,15:04:01.621239
0.016009,-0000003,-0000005,+0000006,+0000028,-0000080,+0004172,-0000730,+0000402,-0002330,15:04:01.622237
0.016349,+0000016,-0000029,-0000010,+0000040,-0000092,+0004157,-0000730,+0000402,-0002330,15:04:01.622237
0.016675,+0000016,-0000026,-0000008,+0000031,-0000089,+0004164,-0000720,+0000428,-0002312,15:04:01.622237
0.017008,+0000016,-0000018,-0000008,+0000035,-0000088,+0004146,-0000720,+0000428,-0002312,15:04:01.622237
0.017341,+0000014,-0000023,-0000011,+0000047,-0000090,+0004167,-0000720,+0000428,-0002312,15:04:01.622237
0.017675,+0000020,-0000007,-0000017,+0000049,-0000095,+0004147,-0000720,+0000422,-0002292,15:04:01.622237
0.018007,-0000008,-0000011,+0000001,+0000031,-0000113,+0004140,-0000720,+0000422,-0002292,15:04:01.622237
0.018340,+0000021,-0000030,-0000007,+0000040,-0000077,+0004161,-0000720,+0000422,-0002292,15:04:01.622237
0.018673,+0000010,-0000037,-0000016,+0000044,-0000088,+0004144,-0000716,+0000420,-0002305,15:04:01.622237
0.019006,+0000024,-0000035,-0000015,+0000033,-0000101,+0004151,-0000716,+0000420,-0002305,15:04:01.622237
0.019343,+0000014,-0000031,-0000021,+0000045,-0000090,+0004149,-0000716,+0000420,-0002305,15:04:01.622237
0.019672,+0000008,+0000001,-0000002,+0000039,-0000090,+0004152,-0000736,+0000422,-0002275,15:04:01.622237
0.020005,+0000018,-0000035,-0000011,+0000015,-0000086,+0004163,-0000736,+0000422,-0002275,15:04:01.622237
0.020338,+0000017,-0000013,-0000013,+0000053,-0000082,+0004151,-0000736,+0000422,-0002275,15:04:01.622237
0.020671,+0000017,-0000036,-0000002,+0000050,-0000092,+0004151,-0000698,+0000406,-0002296,15:04:01.622237
0.021004,+0000031,-0000016,-0000002,+0000033,-0000104,+0004143,-0000698,+0000406,-0002296,15:04:01.622237
0.021338,+0000013,-0000007,-0000007,+0000037,-0000087,+0004149,-0000698,+0000406,-0002296,15:04:01.622237
0.021670,+0000009,-0000026,-0000007,+0000039,-0000090,+0004148,-0000726,+0000424,-0002313,15:04:01.622237
0.022003,+0000001,-0000019,-0000005,+0000048,-0000078,+0004155,-0000726,+0000424,-0002313,15:04:01.622237
0.022336,+0000014,-0000023,-0000007,+0000048,-0000111,+0004133,-0000726,+0000424,-0002313,15:04:01.622237
0.022669,+0000014,-0000042,-0000014,+0000045,-0000062,+0004160,-0000714,+0000406,-0002295,15:04:01.622237
0.023002,+0000021,-0000030,-0000021,+0000048,-0000075,+0004150,-0000714,+0000406,-0002295,15:04:01.622237
0.023335,+0000002,-0000014,-0000002,+0000042,-0000098,+0004161,-0000714,+0000406,-0002295,15:04:01.622237
0.023668,+0000018,-0000013,-0000016,+0000057,-0000077,+0004148,-0000710,+0000434,-0002303,15:04:01.622237
0.024001,+0000006,-0000026,-0000010,+0000064,-0000086,+0004135,-0000710,+0000434,-0002303,15:04:01.622237
0.024335,+0000011,-0000037,-0000005,+0000020,-0000082,+0004167,-0000710,+0000434,-0002303,15:04:01.622237
0.024667,+0000022,-0000024,-0000010,+0000027,-0000095,+0004140,-0000730,+0000416,-0002299,15:04:01.622237
0.025000,+0000013,-0000034,-0000019,+0000060,-0000103,+0004149,-0000730,+0000416,-0002299,15:04:01.622237
0.025333,+0000014,-0000016,-0000003,+0000043,-0000092,+0004153,-0000730,+0000416,-0002299,15:04:01.622237
0.025666,+0000006,-0000020,-0000010,+0000050,-0000089,+0004135,-0000720,+0000418,-0002319,15:04:01.622237
0.025999,+0000006,-0000016,-0000010,+0000031,-0000093,+0004149,-0000720,+0000418,-0002319,15:04:01.622237
0.026332,+0000017,-0000037,-0000011,+0000044,-0000078,+0004166,-0000720,+0000418,-0002319,15:04:01.622237
0.026665,+0000019,-0000035,-0000015,+0000044,-0000081,+0004165,-0000720,+0000424,-0002300,15:04:01.622237
0.026998,+0000007,-0000020,-0000005,+0000052,-0000083,+0004146,-0000720,+0000424,-0002300,15:04:01.622237
0.027331,+0000019,-0000037,-0000016,+0000054,-0000101,+0004149,-0000720,+0000424,-0002300,15:04:01.622237
0.027664,+0000008,-0000003,-0000012,+0000057,-0000081,+0004134,-0000714,+0000410,-0002297,15:04:01.622237
0.027997,+0000008,-0000034,+0000005,+0000038,-0000084,+0004160,-0000714,+0000410,-0002297,15:04:01.622237
0.028330,+0000021,-0000029,-0000011,+0000037,-0000080,+0004154,-0000714,+0000410,-0002297,15:04:01.622237
0.028663,+0000021,-0000040,-0000007,+0000044,-0000070,+0004151,-0000712,+0000426,-0002299,15:04:01.622237
0.028996,+0000018,-0000035,-0000010,+0000035,-0000073,+0004174,-0000712,+0000426,-0002299,15:04:01.622237
0.029329,+0000008,-0000018,-0000014,+0000036,-0000098,+0004154,-0000712,+0000426,-0002299,15:04:01.622237
0.029662,-0000008,+0000000,-0000005,+0000050,-0000080,+0004161,-0000734,+0000414,-0002310,15:04:01.622237
0.029995,+0000025,-0000019,+0000000,+0000050,-0000098,+0004139,-0000734,+0000414,-0002310,15:04:01.622237
0.030328,+0000017,-0000040,-0000019,+0000044,-0000095,+0004126,-0000734,+0000414,-0002310,15:04:01.622237
0.030661,+0000024,-0000035,-0000003,+0000042,-0000094,+0004153,-0000728,+0000426,-0002307,15:04:01.622237
0.030994,+0000022,-0000031,-0000022,+0000045,-0000090,+0004144,-0000728,+0000426,-0002307,15:04:01.622237
0.031327,-0000003,-0000016,-0000003,+0000037,-0000096,+0004172,-0000728,+0000426,-0002307,15:04:01.622237
0.031660,+0000007,-0000016,-0000003,+0000036,-0000098,+0004152,-0000726,+0000412,-0002274,15:04:01.622237
0.031993,+0000025,-0000016,-0000008,+0000029,-0000093,+0004163,-0000726,+0000412,-0002274,15:04:01.622237
0.032326,+0000031,-0000046,-0000013,+0000044,-0000077,+0004170,-0000726,+0000412,-0002274,15:04:01.622237
0.032659,+0000022,-0000043,-0000016,+0000036,-0000073,+0004160,-0000720,+0000422,-0002292,15:04:01.622237
0.032992,+0000011,-0000018,-0000013,+0000039,-0000081,+0004150,-0000720,+0000422,-0002292,15:04:01.622237
0.033325,-0000006,-0000008,-0000012,+0000034,-0000089,+0004153,-0000720,+0000422,-0002292,15:04:01.622237
0.033658,+0000006,-0000024,-0000006,+0000034,-0000104,+0004188,-0000724,+0000418,-0002319,15:04:01.622237
0.033991,+0000017,-0000026,-0000010,+0000054,-0000094,+0004161,-0000724,+0000418,-0002319,15:04:01.622237
0.034325,+0000020,-0000034,-0000008,+0000048,-0000102,+0004150,-0000724,+0000418,-0002319,15:04:01.622237
0.034657,+0000018,-0000026,-0000022,+0000034,-0000072,+0004162,-0000738,+0000422,-0002303,15:04:01.622237
0.034990,+0000003,-0000010,-0000010,+0000039,-0000083,+0004154,-0000738,+0000422,-0002303,15:04:01.622237
0.035325,+0000013,-0000016,-0000002,+0000017,-0000085,+0004155,-0000738,+0000422,-0002303,15:04:01.622237
0.035656,+0000002,-0000014,-0000011,+0000039,-0000098,+0004185,-0000724,+0000418,-0002346,15:04:01.622237
0.035989,+0000028,-0000026,+0000000,+0000045,-0000095,+0004163,-0000724,+0000418,-0002346,15:04:01.622237
0.036325,+0000025,-0000031,+0000001,+0000034,-0000101,+0004148,-0000724,+0000418,-0002346,15:04:01.622237
0.036655,+0000019,-0000032,-0000021,+0000068,-0000093,+0004136,-0000740,+0000422,-0002287,15:04:01.622237
0.036988,-0000009,-0000001,+0000017,+0000028,-0000082,+0004157,-0000740,+0000422,-0002287,15:04:01.622237
0.037326,+0000016,-0000023,-0000020,+0000031,-0000080,+0004172,-0000740,+0000422,-0002287,15:04:01.622237
0.037654,+0000017,-0000015,-0000004,+0000044,-0000096,+0004156,-0000726,+0000410,-0002302,15:04:01.622237
0.037987,+0000013,-0000028,-0000010,+0000044,-0000070,+0004149,-0000726,+0000410,-0002302,15:04:01.622237
0.038325,+0000011,-0000027,-0000008,+0000051,-0000078,+0004149,-0000726,+0000410,-0002302,15:04:01.622237
0.038653,+0000013,-0000035,-0000010,+0000025,-0000086,+0004149,-0000718,+0000430,-0002309,15:04:01.622237
0.038986,+0000008,-0000011,-0000007,+0000042,-0000077,+0004155,-0000718,+0000430,-0002309,15:04:01.622237
0.039324,+0000008,-0000011,-0000006,+0000045,-0000078,+0004151,-0000718,+0000430,-0002309,15:04:01.622237
0.039652,+0000019,-0000016,-0000010,+0000041,-0000094,+0004188,-0000738,+0000416,-0002301,15:04:01.622237
0.040004,+0000030,-0000042,-0000010,+0000033,-0000090,+0004156,-0000738,+0000416,-0002301,15:04:01.622237
0.040323,+0000006,-0000029,-0000007,+0000036,-0000075,+0004157,-0000738,+0000416,-0002301,15:04:01.622237
0.040651,+0000013,-0000021,-0000011,+0000038,-0000092,+0004168,-0000704,+0000402,-0002307,15:04:01.622237
0.040984,-0000003,-0000003,-0000008,+0000025,-0000075,+0004142,-0000704,+0000402,-0002307,15:04:01.622237
0.041322,+0000009,-0000016,-0000003,+0000061,-0000103,+0004153,-0000704,+0000402,-0002307,15:04:01.622237
0.041650,+0000010,-0000039,-0000017,+0000034,-0000080,+0004150,-0000728,+0000418,-0002300,15:04:01.622237
0.041983,+0000008,-0000024,-0000005,+0000028,-0000082,+0004137,-0000728,+0000418,-0002300,15:04:01.622237
0.042321,+0000027,-0000037,-0000010,+0000028,-0000116,+0004142,-0000728,+0000418,-0002300,15:04:01.622237
0.042649,+0000012,-0000032,-0000012,+0000034,-0000085,+0004169,-0000730,+0000422,-0002316,15:04:01.667932
0.042983,+0000014,-0000018,-0000019,+0000034,-0000089,+0004166,-0000730,+0000422,-0002316,15:04:01.667932
0.043321,-0000001,-0000007,-0000010,+0000009,-0000084,+0004131,-0000730,+0000422,-0002316,15:04:01.667932
0.043894,+0000005,-0000023,-0000015,+0000023,-0000089,+0004146,-0000728,+0000416,-0002321,15:04:01.667932
0.044180,+0000011,-0000026,+0000000,+0000043,-0000084,+0004144,-0000728,+0000416,-0002321,15:04:01.667932
0.044328,+0000011,-0000026,+0000000,+0000043,-0000084,+0004144,-0000728,+0000416,-0002321,15:04:01.667932
0.044786,+0000000,-0000005,-0000008,+0000047,-0000072,+0004153,-0000734,+0000448,-0002320,15:04:01.667932
0.045018,+0000000,-0000016,-0000007,+0000050,-0000073,+0004152,-0000734,+0000448,-0002320,15:04:01.667932
0.045317,+0000017,-0000015,-0000002,+0000051,-0000108,+0004147,-0000734,+0000448,-0002320,15:04:01.667932
0.045646,+0000009,-0000019,-0000015,+0000050,-0000094,+0004142,-0000712,+0000406,-0002336,15:04:01.667932
0.045979,+0000032,-0000044,-0000007,+0000050,-0000090,+0004151,-0000712,+0000406,-0002336,15:04:01.667932
0.046317,+0000006,-0000037,-0000008,+0000048,-0000097,+0004148,-0000712,+0000406,-0002336,15:04:01.667932
0.046646,+0000009,-0000005,-0000013,+0000047,-0000087,+0004153,-0000718,+0000420,-0002315,15:04:01.667932
0.046978,+0000014,-0000005,-0000011,+0000035,-0000088,+0004170,-0000718,+0000420,-0002315,15:04:01.667932
0.047315,+0000016,-0000030,+0000001,+0000054,-0000089,+0004154,-0000718,+0000420,-0002315,15:04:01.667932
0.047644,+0000016,-0000029,-0000013,+0000049,-0000078,+0004148,-0000734,+0000434,-0002325,15:04:01.667932
0.047978,+0000016,-0000039,-0000013,+0000040,-0000104,+0004177,-0000734,+0000434,-0002325,15:04:01.667932
0.048314,+0000021,-0000013,-0000010,+0000019,-0000088,+0004152,-0000734,+0000434,-0002325,15:04:01.667932
0.048643,-0000005,-0000011,+0000005,+0000043,-0000084,+0004149,-0000730,+0000434,-0002309,15:04:01.667932
0.048976,+0000014,-0000015,-0000011,+0000046,-0000082,+0004137,-0000730,+0000434,-0002309,15:04:01.667932
0.049309,+0000003,-0000015,-0000016,+0000023,-0000102,+0004144,-0000730,+0000434,-0002309,15:04:01.667932
0.049642,+0000008,-0000018,+0000003,+0000035,-0000080,+0004145,-0000734,+0000436,-0002327,15:04:01.667932
0.049975,+0000033,-0000043,-0000016,+0000051,-0000087,+0004150,-0000734,+0000436,-0002327,15:04:01.667932
0.050320,+0000011,-0000021,+0000001,+0000048,-0000089,+0004156,-0000734,+0000436,-0002327,15:04:01.667932
0.050645,+0000017,-0000023,-0000010,+0000045,-0000089,+0004162,-0000734,+0000418,-0002305,15:04:01.667932
0.050975,+0000022,-0000032,-0000013,+0000050,-0000100,+0004145,-0000734,+0000418,-0002305,15:04:01.667932
0.051309,+0000021,-0000029,-0000015,+0000043,-0000087,+0004174,-0000734,+0000418,-0002305,15:04:01.667932
0.051641,+0000016,-0000026,-0000011,+0000040,-0000093,+0004166,-0000712,+0000414,-0002285,15:04:01.667932
0.051976,+0000019,-0000028,-0000010,+0000037,-0000073,+0004139,-0000712,+0000414,-0002285,15:04:01.667932
0.052310,+0000010,-0000034,-0000008,+0000060,-0000079,+0004163,-0000712,+0000414,-0002285,15:04:01.667932
0.052640,+0000017,-0000031,-0000022,+0000025,-0000091,+0004134,-0000742,+0000424,-0002302,15:04:01.667932
0.052972,-0000008,+0000003,+0000007,+0000018,-0000094,+0004144,-0000742,+0000424,-0002302,15:04:01.667932
0.053309,+0000005,-0000016,-0000011,+0000039,-0000106,+0004172,-0000742,+0000424,-0002302,15:04:01.667932
0.053638,+0000028,-0000019,-0000006,+0000038,-0000074,+0004160,-0000716,+0000432,-0002324,15:04:01.667932
0.053972,+0000010,-0000029,-0000006,+0000046,-0000076,+0004153,-0000716,+0000432,-0002324,15:04:01.667932
0.054309,+0000028,-0000035,-0000008,+0000046,-0000074,+0004153,-0000716,+0000432,-0002324,15:04:01.667932
0.054637,+0000008,-0000022,-0000005,+0000043,-0000096,+0004154,-0000732,+0000420,-0002325,15:04:01.667932
0.054970,+0000014,-0000031,-0000003,+0000040,-0000084,+0004164,-0000732,+0000420,-0002325,15:04:01.667932
0.055316,+0000008,-0000019,+0000011,+0000048,-0000094,+0004146,-0000732,+0000420,-0002325,15:04:01.667932
0.055636,+0000011,-0000024,-0000008,+0000042,-0000064,+0004153,-0000720,+0000410,-0002325,15:04:01.667932
0.055969,+0000024,-0000036,-0000022,+0000022,-0000081,+0004156,-0000720,+0000410,-0002325,15:04:01.667932
0.056315,+0000009,-0000032,-0000007,+0000060,-0000092,+0004154,-0000720,+0000410,-0002325,15:04:01.667932
0.056635,+0000016,-0000026,-0000016,+0000042,-0000080,+0004153,-0000724,+0000426,-0002298,15:04:01.669918
0.056968,+0000002,-0000010,-0000005,+0000046,-0000105,+0004124,-0000724,+0000426,-0002298,15:04:01.669918
0.057314,+0000017,-0000023,-0000003,+0000034,-0000101,+0004148,-0000724,+0000426,-0002298,15:04:01.669918
0.057634,+0000013,-0000027,-0000011,+0000041,-0000100,+0004153,-0000716,+0000398,-0002312,15:04:01.669918
0.057967,+0000017,-0000023,-0000008,+0000035,-0000072,+0004128,-0000716,+0000398,-0002312,15:04:01.669918
0.058313,+0000014,-0000031,-0000016,+0000057,-0000077,+0004145,-0000716,+0000398,-0002312,15:04:01.669918
0.058633,+0000003,-0000019,+0000000,+0000045,-0000079,+0004139,-0000728,+0000418,-0002294,15:04:01.669918
0.058966,+0000014,-0000008,+0000000,+0000058,-0000079,+0004150,-0000728,+0000418,-0002294,15:04:01.669918
0.059311,+0000010,-0000024,-0000008,+0000023,-0000092,+0004144,-0000728,+0000418,-0002294,15:04:01.669918
0.059632,+0000024,-0000027,-0000007,+0000036,-0000080,+0004160,-0000728,+0000428,-0002323,15:04:01.669918
0.059965,+0000008,-0000032,-0000007,+0000038,-0000087,+0004165,-0000728,+0000428,-0002323,15:04:01.669918
0.060298,+0000013,-0000019,-0000010,+0000029,-0000079,+0004165,-0000728,+0000428,-0002323,15:04:01.669918
0.060631,-0000002,-0000016,-0000003,+0000039,-0000102,+0004155,-0000716,+0000418,-0002307,15:04:01.669918
0.060964,+0000014,-0000010,-0000011,+0000045,-0000071,+0004164,-0000716,+0000418,-0002307,15:04:01.669918
0.061297,+0000019,-0000037,-0000008,+0000053,-0000062,+0004152,-0000716,+0000418,-0002307,15:04:01.669918
0.061630,+0000027,-0000035,-0000007,+0000036,-0000091,+0004150,-0000734,+0000412,-0002282,15:04:01.669918
0.061963,+0000014,-0000018,-0000008,+0000044,-0000087,+0004155,-0000734,+0000412,-0002282,15:04:01.669918
0.062296,+0000016,-0000021,-0000011,+0000048,-0000090,+0004150,-0000734,+0000412,-0002282,15:04:01.669918
0.062629,+0000002,-0000007,+0000003,+0000039,-0000106,+0004145,-0000718,+0000426,-0002325,15:04:01.669918
0.062962,+0000005,-0000015,-0000011,+0000045,-0000109,+0004138,-0000718,+0000426,-0002325,15:04:01.669918
0.063295,+0000014,-0000029,+0000006,+0000049,-0000086,+0004136,-0000718,+0000426,-0002325,15:04:01.669918
0.063628,+0000025,-0000046,-0000013,+0000037,-0000095,+0004160,-0000720,+0000424,-0002301,15:04:01.669918
0.063961,+0000013,-0000023,-0000002,+0000044,-0000089,+0004138,-0000720,+0000424,-0002301,15:04:01.669918
0.064294,+0000013,-0000018,-0000019,+0000041,-0000088,+0004115,-0000720,+0000424,-0002301,15:04:01.669918
0.064627,+0000000,-0000013,-0000018,+0000052,-0000085,+0004175,-0000728,+0000412,-0002309,15:04:01.669918
0.064960,+0000017,-0000028,+0000004,+0000030,-0000077,+0004154,-0000728,+0000412,-0002309,15:04:01.669918
0.065293,+0000013,-0000024,-0000013,+0000030,-0000072,+0004178,-0000728,+0000412,-0002309,15:04:01.670916
0.065626,+0000011,-0000030,-0000003,+0000049,-0000083,+0004152,-0000744,+0000418,-0002295,15:04:01.670916
0.065959,+0000014,-0000027,-0000010,+0000036,-0000093,+0004145,-0000744,+0000418,-0002295,15:04:01.670916
0.066292,+0000009,-0000027,-0000019,+0000045,-0000078,+0004152,-0000744,+0000418,-0002295,15:04:01.670916
0.066625,+0000005,-0000011,+0000011,+0000062,-0000090,+0004165,-0000720,+0000410,-0002287,15:04:01.670916
0.066958,+0000003,-0000012,-0000021,+0000034,-0000098,+0004164,-0000720,+0000410,-0002287,15:04:01.670916
0.067291,+0000028,-0000029,-0000010,+0000040,-0000076,+0004157,-0000720,+0000410,-0002287,15:04:01.670916
0.067624,+0000028,-0000037,-0000011,+0000045,-0000090,+0004152,-0000728,+0000416,-0002300,15:04:01.670916
0.067957,+0000007,-0000029,-0000005,+0000039,-0000082,+0004152,-0000728,+0000416,-0002300,15:04:01.670916
0.068290,+0000016,-0000028,-0000010,+0000014,-0000082,+0004147,-0000728,+0000416,-0002300,15:04:01.670916
0.068623,-0000002,-0000002,-0000002,+0000041,-0000100,+0004162,-0000728,+0000424,-0002306,15:04:01.670916
0.068956,+0000011,-0000021,-0000004,+0000036,-0000110,+0004181,-0000728,+0000424,-0002306,15:04:01.670916
0.069289,+0000030,-0000021,+0000000,+0000050,-0000071,+0004161,-0000728,+0000424,-0002306,15:04:01.670916
0.069622,+0000010,-0000040,-0000008,+0000025,-0000082,+0004142,-0000724,+0000410,-0002293,15:04:01.670916
0.069955,+0000030,-0000037,-0000010,+0000029,-0000095,+0004137,-0000724,+0000410,-0002293,15:04:01.670916
0.070288,+0000010,-0000015,-0000015,+0000045,-0000094,+0004143,-0000724,+0000410,-0002293,15:04:01.670916
0.070621,+0000022,-0000018,-0000008,+0000046,-0000099,+0004146,-0000710,+0000430,-0002329,15:04:01.670916
0.070954,+0000005,-0000021,+0000001,+0000049,-0000084,+0004156,-0000710,+0000430,-0002329,15:04:01.670916
0.071287,+0000022,-0000039,-0000007,+0000039,-0000091,+0004150,-0000710,+0000430,-0002329,15:04:01.670916
0.071620,+0000019,-0000034,-0000002,+0000048,-0000084,+0004165,-0000744,+0000436,-0002326,15:04:01.670916
0.071953,+0000009,-0000023,-0000008,+0000050,-0000103,+0004112,-0000744,+0000436,-0002326,15:04:01.670916
0.072286,+0000000,+0000000,+0000004,+0000035,-0000100,+0004128,-0000744,+0000436,-0002326,15:04:01.670916
0.072619,+0000002,-0000010,-0000013,+0000031,-0000091,+0004144,-0000748,+0000406,-0002319,15:04:01.670916
0.072952,+0000011,-0000026,+0000001,+0000035,-0000109,+0004155,-0000748,+0000406,-0002319,15:04:01.670916
0.073288,+0000028,-0000045,-0000015,+0000031,-0000099,+0004145,-0000748,+0000406,-0002319,15:04:01.671918
0.073618,+0000018,-0000037,-0000015,+0000037,-0000069,+0004152,-0000722,+0000428,-0002310,15:04:01.671918
0.073951,+0000002,-0000011,-0000010,+0000040,-0000082,+0004160,-0000722,+0000428,-0002310,15:04:01.671918
0.074284,+0000011,+0000000,-0000013,+0000068,-0000098,+0004154,-0000722,+0000428,-0002310,15:04:01.671918
0.074617,+0000025,-0000032,-0000008,+0000043,-0000077,+0004151,-0000732,+0000430,-0002292,15:04:01.671918
0.074950,+0000008,-0000021,-0000003,+0000053,-0000083,+0004149,-0000732,+0000430,-0002292,15:04:01.671918
0.075283,+0000019,-0000037,-0000014,+0000025,-0000082,+0004143,-0000732,+0000430,-0002292,15:04:01.671918
0.075616,+0000022,-0000019,-0000006,+0000047,-0000062,+0004147,-0000732,+0000420,-0002313,15:04:01.671918
0.075949,+0000010,-0000019,-0000007,+0000040,-0000089,+0004163,-0000732,+0000420,-0002313,15:04:01.671918
0.076282,+0000006,-0000016,-0000005,+0000046,-0000080,+0004154,-0000732,+0000420,-0002313,15:04:01.671918
0.076615,+0000011,-0000010,+0000003,+0000034,-0000065,+0004154,-0000726,+0000432,-0002310,15:04:01.671918
0.076948,+0000017,-0000021,-0000008,+0000028,-0000091,+0004156,-0000726,+0000432,-0002310,15:04:01.671918
0.077281,+0000018,-0000037,-0000008,+0000043,-0000094,+0004129,-0000726,+0000432,-0002310,15:04:01.671918
0.077614,+0000014,-0000026,-0000005,+0000046,-0000096,+0004144,-0000722,+0000434,-0002293,15:04:01.671918
0.077947,+0000008,-0000016,-0000013,+0000048,-0000087,+0004147,-0000722,+0000434,-0002293,15:04:01.671918
0.078280,+0000014,-0000008,-0000010,+0000039,-0000078,+0004161,-0000722,+0000434,-0002293,15:04:01.671918
0.078613,+0000013,-0000020,-0000010,+0000035,-0000075,+0004144,-0000734,+0000438,-0002309,15:04:01.671918
0.078946,+0000014,-0000027,+0000003,+0000048,-0000098,+0004154,-0000734,+0000438,-0002309,15:04:01.671918
0.079279,+0000013,-0000042,-0000005,+0000035,-0000074,+0004154,-0000734,+0000438,-0002309,15:04:01.671918
0.079612,+0000017,-0000031,-0000013,+0000049,-0000081,+0004157,-0000720,+0000426,-0002286,15:04:01.671918
0.079945,+0000017,-0000026,-0000007,+0000034,-0000082,+0004138,-0000720,+0000426,-0002286,15:04:01.671918
0.080278,+0000006,-0000005,-0000004,+0000050,-0000082,+0004172,-0000720,+0000426,-0002286,15:04:01.671918
0.080611,+0000009,-0000013,-0000008,+0000024,-0000083,+0004174,-0000714,+0000412,-0002334,15:04:01.671918
0.080944,+0000022,-0000032,-0000015,+0000020,-0000084,+0004155,-0000714,+0000412,-0002334,15:04:01.671918
0.081277,+0000022,-0000031,-0000007,+0000051,-0000091,+0004143,-0000714,+0000412,-0002334,15:04:01.671918
0.081610,+0000018,-0000021,-0000008,+0000024,-0000098,+0004148,-0000724,+0000424,-0002327,15:04:01.671918
0.081943,+0000006,-0000023,-0000008,+0000049,-0000103,+0004142,-0000724,+0000424,-0002327,15:04:01.671918
0.082276,+0000002,-0000008,-0000011,+0000045,-0000094,+0004140,-0000724,+0000424,-0002327,15:04:01.671918
0.082609,+0000005,-0000018,-0000007,+0000042,-0000088,+0004143,-0000708,+0000430,-0002319,15:04:01.671918
0.082942,+0000010,-0000032,+0000000,+0000034,-0000104,+0004147,-0000708,+0000430,-0002319,15:04:01.671918
0.083275,+0000024,-0000037,-0000005,+0000041,-0000085,+0004155,-0000708,+0000430,-0002319,15:04:01.671918
0.083608,+0000033,-0000024,-0000016,+0000038,-0000081,+0004159,-0000718,+0000414,-0002322,15:04:01.671918
0.083941,-0000004,-0000016,-0000010,+0000049,-0000102,+0004165,-0000718,+0000414,-0002322,15:04:01.671918
0.084274,-0000002,-0000009,-0000002,+0000061,-0000102,+0004148,-0000718,+0000414,-0002322,15:04:01.671918
0.084607,+0000024,-0000031,-0000008,+0000038,-0000082,+0004148,-0000716,+0000422,-0002318,15:04:01.671918
0.084940,+0000016,-0000034,-0000005,+0000058,-0000098,+0004160,-0000716,+0000422,-0002318,15:04:01.671918
0.085273,+0000022,-0000043,-0000008,+0000045,-0000098,+0004158,-0000716,+0000422,-0002318,15:04:01.671918
0.085606,+0000022,-0000024,-0000008,+0000030,-0000102,+0004149,-0000724,+0000418,-0002283,15:04:01.671918
0.085939,-0000002,-0000004,-0000007,+0000030,-0000090,+0004151,-0000724,+0000418,-0002283,15:04:01.671918
0.086272,+0000004,+0000000,+0000007,+0000040,-0000079,+0004149,-0000724,+0000418,-0002283,15:04:01.671918
0.086605,+0000036,-0000034,-0000013,+0000031,-0000086,+0004159,-0000724,+0000420,-0002315,15:04:01.671918
0.086938,+0000011,-0000032,-0000011,+0000037,-0000075,+0004141,-0000724,+0000420,-0002315,15:04:01.671918
0.087271,+0000019,-0000034,-0000005,+0000034,-0000078,+0004171,-0000724,+0000420,-0002315,15:04:01.671918
0.087604,+0000004,-0000012,+0000000,+0000032,-0000100,+0004157,-0000722,+0000406,-0002314,15:04:01.671918
0.087937,+0000010,-0000011,-0000021,+0000058,-0000096,+0004141,-0000722,+0000406,-0002314,15:04:01.671918
0.088270,+0000021,-0000034,-0000002,+0000049,-0000106,+0004141,-0000722,+0000406,-0002314,15:04:01.671918
0.088603,+0000009,-0000010,-0000008,+0000056,-0000088,+0004152,-0000734,+0000416,-0002302,15:04:01.671918
0.088936,+0000018,-0000035,+0000000,+0000059,-0000092,+0004169,-0000734,+0000416,-0002302,15:04:01.671918
0.089269,+0000030,-0000013,-0000007,+0000032,-0000073,+0004153,-0000734,+0000416,-0002302,15:04:01.671918
0.089602,+0000013,-0000016,-0000018,+0000041,-0000078,+0004161,-0000716,+0000426,-0002334,15:04:01.671918
0.089935,-0000004,-0000015,-0000010,+0000031,-0000100,+0004157,-0000716,+0000426,-0002334,15:04:01.672915
0.090268,+0000016,-0000007,-0000002,+0000061,-0000084,+0004148,-0000716,+0000426,-0002334,15:04:01.672915
0.090601,+0000021,-0000034,-0000005,+0000050,-0000090,+0004141,-0000728,+0000424,-0002281,15:04:01.672915
0.090934,+0000014,-0000037,-0000011,+0000052,-0000079,+0004159,-0000728,+0000424,-0002281,15:04:01.672915
0.091267,+0000032,-0000035,-0000016,+0000034,-0000103,+0004151,-0000728,+0000424,-0002281,15:04:01.672915
0.091600,-0000001,-0000010,-0000005,+0000023,-0000094,+0004149,-0000730,+0000434,-0002318,15:04:01.672915
0.091933,+0000010,-0000021,-0000007,+0000055,-0000075,+0004153,-0000730,+0000434,-0002318,15:04:01.673920
0.092266,+0000011,-0000013,-0000008,+0000050,-0000087,+0004143,-0000730,+0000434,-0002318,15:04:01.673920
0.092599,+0000010,-0000039,+0000003,+0000037,-0000075,+0004141,-0000722,+0000420,-0002296,15:04:01.719838
0.092935,+0000030,-0000046,-0000012,+0000028,-0000068,+0004150,-0000722,+0000420,-0002296,15:04:01.719838
0.093267,+0000016,-0000029,-0000008,+0000045,-0000097,+0004145,-0000722,+0000420,-0002296,15:04:01.719838
0.093977,+0000011,-0000013,-0000007,+0000060,-0000097,+0004140,-0000732,+0000412,-0002304,15:04:01.719838
0.094357,+0000009,-0000023,-0000011,+0000065,-0000086,+0004137,-0000732,+0000412,-0002304,15:04:01.719838
0.094601,+0000016,-0000019,-0000006,+0000046,-0000089,+0004150,-0000732,+0000412,-0002304,15:04:01.721836
0.094933,+0000018,-0000021,-0000014,+0000037,-0000096,+0004134,-0000732,+0000412,-0002315,15:04:01.721836
0.095265,-0000002,-0000018,-0000008,+0000039,-0000090,+0004158,-0000732,+0000412,-0002315,15:04:01.721836
0.095600,+0000021,-0000026,-0000016,+0000030,-0000091,+0004147,-0000732,+0000412,-0002315,15:04:01.721836
0.095934,+0000002,-0000015,-0000007,+0000037,-0000092,+0004176,-0000720,+0000400,-0002317,15:04:01.721836
0.096262,+0000005,-0000021,-0000018,+0000041,-0000088,+0004134,-0000720,+0000400,-0002317,15:04:01.721836
0.096689,+0000030,-0000040,-0000008,+0000055,-0000088,+0004133,-0000720,+0000400,-0002317,15:04:01.721836
0.096928,+0000030,-0000032,-0000013,+0000014,-0000076,+0004136,-0000742,+0000406,-0002343,15:04:01.721836
0.097261,-0000015,-0000008,-0000013,+0000018,-0000072,+0004124,-0000742,+0000406,-0002343,15:04:01.721836
0.097594,+0000022,-0000018,-0000013,+0000049,-0000088,+0004138,-0000742,+0000406,-0002343,15:04:01.721836
0.097927,-0000006,-0000001,+0000001,+0000042,-0000093,+0004150,-0000730,+0000408,-0002303,15:04:01.721836
0.098260,+0000011,-0000031,-0000012,+0000033,-0000104,+0004170,-0000730,+0000408,-0002303,15:04:01.721836
0.098593,+0000022,-0000030,-0000003,+0000041,-0000100,+0004157,-0000730,+0000408,-0002303,15:04:01.721836
0.098926,+0000006,-0000036,-0000011,+0000040,-0000089,+0004154,-0000726,+0000418,-0002291,15:04:01.721836
0.099259,+0000021,-0000032,-0000008,+0000025,-0000091,+0004151,-0000726,+0000418,-0002291,15:04:01.721836
0.099592,-0000001,-0000007,-0000005,+0000034,-0000071,+0004143,-0000726,+0000418,-0002291,15:04:01.721836
0.100191,+0000010,-0000045,-0000004,+0000036,-0000092,+0004135,-0000730,+0000418,-0002315,15:04:01.721836
0.100491,+0000010,-0000013,-0000014,+0000052,-0000088,+0004164,-0000730,+0000418,-0002315,15:04:01.721836
0.100629,+0000010,-0000013,-0000014,+0000052,-0000088,+0004164,-0000730,+0000418,-0002315,15:04:01.721836
0.101044,+0000022,-0000047,-0000008,+0000052,-0000080,+0004175,-0000726,+0000424,-0002316,15:04:01.721836
0.101264,+0000005,-0000021,-0000006,+0000058,-0000075,+0004158,-0000726,+0000424,-0002316,15:04:01.721836
0.101592,+0000011,-0000027,-0000019,+0000042,-0000104,+0004168,-0000726,+0000424,-0002316,15:04:01.721836
0.101923,+0000013,-0000015,-0000003,+0000051,-0000098,+0004156,-0000726,+0000424,-0002316,15:04:01.721836
0.102256,+0000024,-0000011,-0000016,+0000040,-0000091,+0004170,-0000726,+0000424,-0002316,15:04:01.721836
0.102589,+0000010,-0000032,-0000002,+0000042,-0000087,+0004143,-0000726,+0000424,-0002316,15:04:01.721836
0.102923,+0000035,-0000013,-0000008,+0000047,-0000079,+0004139,-0000722,+0000418,-0002337,15:04:01.721836
0.103256,+0000019,-0000019,-0000004,+0000041,-0000095,+0004147,-0000722,+0000418,-0002337,15:04:01.721836
0.103588,-0000011,-0000006,-0000013,+0000048,-0000097,+0004134,-0000722,+0000418,-0002337,15:04:01.721836
0.103922,+0000019,-0000013,+0000001,+0000046,-0000091,+0004156,-0000724,+0000424,-0002312,15:04:01.721836
0.104254,+0000005,-0000032,-0000021,+0000040,-0000085,+0004172,-0000724,+0000424,-0002312,15:04:01.721836
0.104591,+0000035,-0000035,-0000006,+0000029,-0000088,+0004164,-0000724,+0000424,-0002312,15:04:01.721836
0.104920,+0000016,-0000022,-0000005,+0000054,-0000081,+0004168,-0000738,+0000432,-0002306,15:04:01.721836
0.105253,+0000002,-0000014,-0000007,+0000044,-0000093,+0004138,-0000738,+0000432,-0002306,15:04:01.721836
0.105586,+0000003,-0000016,-0000008,+0000029,-0000067,+0004146,-0000738,+0000432,-0002306,15:04:01.721836
0.105919,+0000018,-0000013,-0000013,+0000048,-0000075,+0004146,-0000712,+0000418,-0002319,15:04:01.721836
0.106252,+0000002,-0000032,-0000008,+0000058,-0000081,+0004163,-0000712,+0000418,-0002319,15:04:01.721836
0.106585,+0000013,-0000043,-0000019,+0000053,-0000090,+0004174,-0000712,+0000418,-0002319,15:04:01.721836
0.106918,+0000016,-0000028,-0000005,+0000037,-0000095,+0004151,-0000728,+0000412,-0002339,15:04:01.721836
0.107251,+0000005,-0000013,-0000022,+0000054,-0000088,+0004131,-0000728,+0000412,-0002339,15:04:01.721836
0.107584,+0000018,-0000016,-0000002,+0000028,-0000100,+0004149,-0000728,+0000412,-0002339,15:04:01.721836
0.107917,+0000000,-0000008,-0000013,+0000047,-0000101,+0004147,-0000730,+0000418,-0002305,15:04:01.721836
0.108250,+0000012,-0000037,+0000003,+0000044,-0000089,+0004160,-0000730,+0000418,-0002305,15:04:01.721836
0.108583,+0000039,-0000047,-0000016,+0000028,-0000078,+0004152,-0000730,+0000418,-0002305,15:04:01.722829
0.108916,-0000001,-0000015,-0000005,+0000055,-0000085,+0004153,-0000722,+0000416,-0002316,15:04:01.722829
0.109249,+0000021,-0000018,-0000018,+0000047,-0000092,+0004169,-0000722,+0000416,-0002316,15:04:01.722829
0.109582,-0000004,-0000002,-0000002,+0000047,-0000082,+0004155,-0000722,+0000416,-0002316,15:04:01.722829
0.109915,+0000003,-0000019,-0000013,+0000036,-0000080,+0004158,-0000726,+0000422,-0002308,15:04:01.722829
0.110248,+0000017,-0000021,-0000003,+0000020,-0000085,+0004151,-0000726,+0000422,-0002308,15:04:01.722829
0.110581,+0000018,-0000045,-0000002,+0000034,-0000096,+0004151,-0000726,+0000422,-0002308,15:04:01.722829
0.110914,+0000021,-0000021,-0000021,+0000040,-0000086,+0004147,-0000720,+0000412,-0002340,15:04:01.722829
0.111247,+0000014,-0000024,-0000005,+0000027,-0000090,+0004155,-0000720,+0000412,-0002340,15:04:01.722829
0.111580,+0000002,-0000008,+0000001,+0000056,-0000076,+0004156,-0000720,+0000412,-0002340,15:04:01.722829
0.111913,+0000006,-0000013,-0000006,+0000054,-0000080,+0004155,-0000720,+0000430,-0002329,15:04:01.722829
0.112246,+0000025,-0000040,-0000010,+0000038,-0000087,+0004151,-0000720,+0000430,-0002329,15:04:01.722829
0.112579,+0000016,-0000045,-0000008,+0000054,-0000097,+0004147,-0000720,+0000430,-0002329,15:04:01.722829
0.112912,+0000021,-0000018,-0000013,+0000031,-0000075,+0004147,-0000738,+0000418,-0002300,15:04:01.722829
0.113245,+0000009,+0000003,-0000008,+0000032,-0000080,+0004148,-0000738,+0000418,-0002300,15:04:01.722829
0.113578,+0000003,-0000014,-0000005,+0000042,-0000083,+0004154,-0000738,+0000418,-0002300,15:04:01.722829
0.113911,+0000022,-0000035,-0000008,+0000031,-0000081,+0004160,-0000728,+0000412,-0002321,15:04:01.722829
0.114244,+0000013,-0000036,-0000012,+0000052,-0000088,+0004150,-0000728,+0000412,-0002321,15:04:01.722829
0.114577,+0000020,-0000029,+0000000,+0000041,-0000071,+0004149,-0000728,+0000412,-0002321,15:04:01.722829
0.114910,+0000019,-0000015,-0000018,+0000041,-0000097,+0004168,-0000730,+0000438,-0002312,15:04:01.722829
0.115243,+0000008,-0000019,-0000005,+0000045,-0000085,+0004161,-0000730,+0000438,-0002312,15:04:01.722829
0.115576,+0000005,-0000003,-0000010,+0000052,-0000094,+0004152,-0000730,+0000438,-0002312,15:04:01.722829
0.115909,+0000024,-0000034,-0000007,+0000043,-0000091,+0004151,-0000724,+0000434,-0002297,15:04:01.722829
0.116242,+0000022,-0000040,-0000013,+0000039,-0000114,+0004148,-0000724,+0000434,-0002297,15:04:01.722829
0.116575,+0000033,-0000014,-0000016,+0000037,-0000074,+0004168,-0000724,+0000434,-0002297,15:04:01.722829
0.116908,+0000030,-0000019,-0000004,+0000028,-0000067,+0004143,-0000748,+0000420,-0002345,15:04:01.722829
0.117241,-0000003,-0000020,-0000005,+0000041,-0000080,+0004162,-0000748,+0000420,-0002345,15:04:01.722829
0.117574,+0000016,-0000004,-0000011,+0000030,-0000076,+0004150,-0000748,+0000420,-0002345,15:04:01.722829
0.117907,+0000000,-0000037,-0000005,+0000044,-0000097,+0004147,-0000728,+0000414,-0002304,15:04:01.722829
0.118240,+0000038,-0000029,-0000008,+0000037,-0000098,+0004143,-0000728,+0000414,-0002304,15:04:01.722829
0.118573,+0000022,-0000029,-0000008,+0000041,-0000099,+0004147,-0000728,+0000414,-0002304,15:04:01.722829
0.118906,+0000022,-0000020,-0000015,+0000033,-0000097,+0004158,-0000722,+0000414,-0002297,15:04:01.722829
0.119239,+0000016,-0000013,+0000000,+0000038,-0000092,+0004145,-0000722,+0000414,-0002297,15:04:01.722829
0.119572,+0000000,-0000003,+0000001,+0000043,-0000083,+0004139,-0000722,+0000414,-0002297,15:04:01.722829
0.119905,+0000010,-0000029,+0000006,+0000033,-0000092,+0004138,-0000724,+0000440,-0002312,15:04:01.722829
0.120238,+0000024,-0000047,-0000024,+0000047,-0000094,+0004155,-0000724,+0000440,-0002312,15:04:01.722829
0.120571,+0000013,-0000026,-0000002,+0000062,-0000095,+0004160,-0000724,+0000440,-0002312,15:04:01.722829
0.120904,+0000010,-0000015,-0000014,+0000048,-0000113,+0004152,-0000720,+0000416,-0002326,15:04:01.722829
0.121237,+0000012,-0000015,-0000008,+0000047,-0000087,+0004144,-0000720,+0000416,-0002326,15:04:01.722829
0.121570,-0000003,-0000004,+0000000,+0000041,-0000068,+0004155,-0000720,+0000416,-0002326,15:04:01.722829
0.121903,+0000029,-0000046,-0000011,+0000022,-0000079,+0004151,-0000720,+0000424,-0002326,15:04:01.722829
0.122236,+0000008,-0000029,-0000003,+0000042,-0000072,+0004163,-0000720,+0000424,-0002326,15:04:01.722829
0.122569,+0000029,-0000026,-0000021,+0000025,-0000079,+0004138,-0000720,+0000424,-0002326,15:04:01.723829
0.122902,+0000011,-0000031,+0000005,+0000051,-0000096,+0004144,-0000726,+0000430,-0002313,15:04:01.723829
0.123235,+0000008,-0000005,-0000019,+0000057,-0000086,+0004158,-0000726,+0000430,-0002313,15:04:01.723829
0.123568,+0000010,-0000018,-0000002,+0000036,-0000098,+0004166,-0000726,+0000430,-0002313,15:04:01.723829
0.123901,+0000013,-0000023,-0000005,+0000030,-0000056,+0004161,-0000726,+0000402,-0002337,15:04:01.723829
0.124234,+0000024,-0000047,-0000018,+0000051,-0000102,+0004142,-0000726,+0000402,-0002337,15:04:01.723829
0.124567,+0000019,-0000037,-0000016,+0000041,-0000089,+0004138,-0000726,+0000402,-0002337,15:04:01.723829
0.124900,+0000017,-0000005,-0000012,+0000026,-0000094,+0004135,-0000730,+0000426,-0002317,15:04:01.723829
0.125233,+0000009,-0000017,-0000004,+0000044,-0000079,+0004136,-0000730,+0000426,-0002317,15:04:01.723829
0.125566,+0000008,-0000031,+0000003,+0000050,-0000083,+0004129,-0000730,+0000426,-0002317,15:04:01.723829
0.125899,+0000027,-0000024,-0000019,+0000045,-0000086,+0004138,-0000736,+0000428,-0002297,15:04:01.723829
0.126232,+0000022,-0000034,+0000004,+0000035,-0000075,+0004144,-0000736,+0000428,-0002297,15:04:01.723829
0.126565,+0000017,-0000032,-0000018,+0000044,-0000098,+0004150,-0000736,+0000428,-0002297,15:04:01.723829
0.126898,+0000014,-0000012,-0000005,+0000047,-0000096,+0004146,-0000726,+0000422,-0002308,15:04:01.723829
0.127231,-0000008,-0000012,-0000002,+0000051,-0000095,+0004142,-0000726,+0000422,-0002308,15:04:01.723829
0.127564,+0000016,-0000028,-0000004,+0000056,-0000089,+0004146,-0000726,+0000422,-0002308,15:04:01.723829
0.127897,+0000014,-0000037,-0000008,+0000048,-0000085,+0004139,-0000748,+0000416,-0002308,15:04:01.723829
0.128230,+0000024,-0000039,-0000010,+0000057,-0000066,+0004152,-0000748,+0000416,-0002308,15:04:01.723829
0.128563,+0000014,-0000020,+0000000,+0000040,-0000080,+0004164,-0000748,+0000416,-0002308,15:04:01.723829
0.128896,+0000005,-0000021,-0000007,+0000041,-0000085,+0004152,-0000742,+0000440,-0002313,15:04:01.723829
0.129229,+0000000,-0000024,-0000005,+0000041,-0000078,+0004159,-0000742,+0000440,-0002313,15:04:01.723829
0.129562,+0000022,-0000031,-0000002,+0000025,-0000091,+0004164,-0000742,+0000440,-0002313,15:04:01.723829
0.129895,+0000009,-0000029,-0000018,+0000037,-0000113,+0004155,-0000740,+0000432,-0002310,15:04:01.723829
0.130228,+0000035,-0000032,-0000005,+0000043,-0000079,+0004155,-0000740,+0000432,-0002310,15:04:01.723829
0.130561,+0000008,-0000013,-0000004,+0000036,-0000079,+0004136,-0000740,+0000432,-0002310,15:04:01.723829
0.130894,+0000005,-0000015,-0000008,+0000041,-0000059,+0004147,-0000716,+0000422,-0002332,15:04:01.723829
0.131227,+0000024,-0000024,-0000015,+0000044,-0000073,+0004140,-0000716,+0000422,-0002332,15:04:01.723829
0.131560,+0000000,-0000018,-0000002,+0000028,-0000063,+0004154,-0000716,+0000422,-0002332,15:04:01.723829
0.131893,+0000017,-0000042,-0000017,+0000042,-0000075,+0004148,-0000738,+0000418,-0002315,15:04:01.723829
0.132226,+0000016,-0000031,-0000002,+0000056,-0000091,+0004160,-0000738,+0000418,-0002315,15:04:01.723829
0.132559,+0000024,-0000018,-0000015,+0000043,-0000095,+0004152,-0000738,+0000418,-0002315,15:04:01.723829
0.132892,+0000002,-0000021,-0000001,+0000053,-0000084,+0004160,-0000744,+0000410,-0002302,15:04:01.723829
0.133225,+0000014,+0000000,-0000004,+0000042,-0000071,+0004148,-0000744,+0000410,-0002302,15:04:01.723829
0.133558,+0000024,-0000030,-0000002,+0000056,-0000107,+0004147,-0000744,+0000410,-0002302,15:04:01.723829
0.133891,+0000024,-0000032,-0000012,+0000038,-0000090,+0004157,-0000740,+0000420,-0002293,15:04:01.723829
0.134224,+0000011,-0000024,-0000013,+0000022,-0000082,+0004157,-0000740,+0000420,-0002293,15:04:01.723829
0.134557,+0000005,-0000018,-0000007,+0000038,-0000073,+0004156,-0000740,+0000420,-0002293,15:04:01.723829
0.134890,+0000006,-0000010,-0000010,+0000057,-0000104,+0004140,-0000734,+0000432,-0002299,15:04:01.723829
0.135223,+0000000,-0000008,-0000002,+0000043,-0000074,+0004175,-0000734,+0000432,-0002299,15:04:01.723829
0.135556,+0000016,-0000040,-0000018,+0000044,-0000084,+0004158,-0000734,+0000432,-0002299,15:04:01.723829
0.135889,+0000014,-0000031,-0000008,+0000066,-0000095,+0004146,-0000722,+0000428,-0002303,15:04:01.723829
0.136222,+0000022,-0000029,-0000019,+0000045,-0000094,+0004126,-0000722,+0000428,-0002303,15:04:01.723829
0.136555,+0000009,-0000016,-0000004,+0000036,-0000082,+0004157,-0000722,+0000428,-0002303,15:04:01.723829
0.136888,+0000002,-0000015,-0000013,+0000043,-0000084,+0004156,-0000726,+0000436,-0002318,15:04:01.723829
0.137221,+0000024,-0000016,+0000000,+0000027,-0000084,+0004142,-0000726,+0000436,-0002318,15:04:01.723829
0.137554,+0000013,-0000035,-0000001,+0000042,-0000076,+0004135,-0000726,+0000436,-0002318,15:04:01.723829
0.137887,+0000020,-0000024,-0000001,+0000022,-0000084,+0004156,-0000726,+0000430,-0002297,15:04:01.723829
0.138220,+0000021,-0000035,-0000013,+0000049,-0000104,+0004166,-0000726,+0000430,-0002297,15:04:01.723829
0.138553,+0000011,-0000016,-0000015,+0000016,-0000066,+0004137,-0000726,+0000430,-0002297,15:04:01.723829
0.138886,+0000000,-0000005,-0000002,+0000030,-0000103,+0004163,-0000740,+0000434,-0002300,15:04:01.723829
0.139219,+0000010,-0000027,-0000010,+0000057,-0000070,+0004160,-0000740,+0000434,-0002300,15:04:01.723829
0.139552,+0000011,-0000026,-0000007,+0000038,-0000089,+0004140,-0000740,+0000434,-0002300,15:04:01.723829
0.139885,+0000024,-0000048,-0000010,+0000042,-0000075,+0004158,-0000736,+0000420,-0002280,15:04:01.723829
0.140218,+0000018,-0000022,-0000015,+0000041,-0000092,+0004132,-0000736,+0000420,-0002280,15:04:01.723829
0.140551,-0000014,+0000001,-0000005,+0000049,-0000064,+0004146,-0000736,+0000420,-0002280,15:04:01.723829
0.140884,+0000014,-0000016,-0000012,+0000037,-0000077,+0004164,-0000736,+0000418,-0002308,15:04:01.723829
0.141217,+0000007,-0000024,-0000002,+0000033,-0000079,+0004153,-0000736,+0000418,-0002308,15:04:01.723829
0.141550,+0000027,-0000053,-0000015,+0000059,-0000082,+0004159,-0000736,+0000418,-0002308,15:04:01.723829
0.141883,+0000010,-0000018,-0000013,+0000043,-0000096,+0004145,-0000738,+0000430,-0002313,15:04:01.723829
0.142216,+0000000,-0000004,-0000002,+0000049,-0000095,+0004165,-0000738,+0000430,-0002313,15:04:01.723829
0.142549,+0000018,-0000020,-0000008,+0000028,-0000091,+0004151,-0000738,+0000430,-0002313,15:04:01.723829
0.142883,+0000005,-0000023,-0000005,+0000038,-0000087,+0004159,-0000730,+0000420,-0002302,15:04:01.766448
0.143218,+0000022,-0000037,-0000002,+0000032,-0000094,+0004152,-0000730,+0000420,-0002302,15:04:01.766448
0.143553,+0000021,-0000032,-0000013,+0000027,-0000087,+0004140,-0000730,+0000420,-0002302,15:04:01.766448
0.144006,+0000000,-0000008,-0000007,+0000050,-0000082,+0004129,-0000738,+0000416,-0002314,15:04:01.766448
0.144404,+0000013,-0000021,-0000015,+0000036,-0000096,+0004153,-0000738,+0000416,-0002314,15:04:01.766448
0.144706,+0000024,-0000015,+0000005,+0000035,-0000087,+0004139,-0000738,+0000416,-0002314,15:04:01.766448
0.144935,-0000003,-0000015,+0000005,+0000035,-0000095,+0004165,-0000724,+0000424,-0002301,15:04:01.766448
0.145215,+0000010,-0000021,-0000013,+0000050,-0000095,+0004133,-0000724,+0000424,-0002301,15:04:01.766448
0.145549,+0000014,-0000029,-0000013,+0000022,-0000083,+0004148,-0000724,+0000424,-0002301,15:04:01.766448
0.145881,-0000006,-0000013,+0000000,+0000056,-0000056,+0004148,-0000728,+0000402,-0002294,15:04:01.766448
0.146212,+0000008,-0000021,-0000008,+0000028,-0000074,+0004166,-0000728,+0000402,-0002294,15:04:01.766448
0.146545,+0000003,-0000021,-0000013,+0000027,-0000102,+0004160,-0000728,+0000402,-0002294,15:04:01.766448
0.146878,+0000009,-0000011,-0000013,+0000029,-0000071,+0004147,-0000720,+0000416,-0002321,15:04:01.766448
0.147211,+0000014,-0000018,-0000016,+0000035,-0000065,+0004151,-0000720,+0000416,-0002321,15:04:01.766448
0.147546,+0000016,-0000037,-0000010,+0000010,-0000094,+0004151,-0000720,+0000416,-0002321,15:04:01.766448
0.147877,+0000014,-0000021,-0000002,+0000035,-0000092,+0004166,-0000726,+0000422,-0002317,15:04:01.766448
0.148210,-0000003,-0000008,-0000005,+0000038,-0000079,+0004151,-0000726,+0000422,-0002317,15:04:01.766448
0.148698,+0000009,-0000021,-0000002,+0000033,-0000071,+0004145,-0000726,+0000422,-0002317,15:04:01.766448
0.148879,+0000009,-0000021,-0000008,+0000038,-0000083,+0004143,-0000744,+0000426,-0002336,15:04:01.766448
0.149482,+0000025,-0000032,-0000007,+0000034,-0000079,+0004142,-0000744,+0000426,-0002336,15:04:01.766448
0.149671,+0000025,-0000032,-0000007,+0000044,-0000086,+0004128,-0000744,+0000426,-0002336,15:04:01.766448
0.149881,+0000008,-0000026,-0000014,+0000044,-0000086,+0004128,-0000740,+0000408,-0002317,15:04:01.766448
0.150209,+0000007,-0000007,-0000015,+0000035,-0000099,+0004160,-0000740,+0000408,-0002317,15:04:01.766448
0.150541,+0000003,-0000016,+0000003,+0000026,-0000088,+0004168,-0000740,+0000408,-0002317,15:04:01.766448
0.150875,-0000001,-0000005,+0000001,+0000038,-0000074,+0004156,-0000736,+0000418,-0002326,15:04:01.766448
0.151208,+0000033,-0000042,-0000005,+0000038,-0000093,+0004171,-0000736,+0000418,-0002326,15:04:01.766448
0.151540,+0000016,-0000029,+0000001,+0000027,-0000069,+0004170,-0000736,+0000418,-0002326,15:04:01.766448
0.151873,+0000019,-0000026,-0000018,+0000054,-0000106,+0004142,-0000730,+0000426,-0002310,15:04:01.766448
0.152207,+0000022,-0000029,-0000011,+0000051,-0000097,+0004172,-0000730,+0000426,-0002310,15:04:01.766448
0.152539,+0000008,-0000008,-0000003,+0000034,-0000085,+0004168,-0000730,+0000426,-0002310,15:04:01.766448
0.152872,+0000000,-0000023,-0000010,+0000033,-0000087,+0004158,-0000738,+0000422,-0002298,15:04:01.766448
0.153205,+0000027,-0000035,-0000007,+0000033,-0000072,+0004162,-0000738,+0000422,-0002298,15:04:01.766448
0.153538,+0000017,-0000035,-0000008,+0000029,-0000078,+0004159,-0000738,+0000422,-0002298,15:04:01.766448
0.153871,+0000006,-0000023,-0000005,+0000028,-0000088,+0004143,-0000736,+0000414,-0002289,15:04:01.766448
0.154204,-0000001,-0000001,+0000012,+0000030,-0000087,+0004153,-0000736,+0000414,-0002289,15:04:01.766448
0.154537,-0000003,-0000002,-0000007,+0000050,-0000093,+0004145,-0000736,+0000414,-0002289,15:04:01.766448
0.154870,+0000022,-0000026,-0000012,+0000051,-0000095,+0004144,-0000734,+0000408,-0002292,15:04:01.766448
0.155203,+0000012,-0000028,-0000008,+0000034,-0000090,+0004153,-0000734,+0000408,-0002292,15:04:01.766448
0.155536,+0000027,-0000039,-0000027,+0000032,-0000073,+0004150,-0000734,+0000408,-0002292,15:04:01.766448
0.155869,+0000017,-0000018,-0000013,+0000050,-0000083,+0004158,-0000728,+0000414,-0002283,15:04:01.766448
0.156202,+0000005,-0000011,-0000007,+0000039,-0000089,+0004148,-0000728,+0000414,-0002283,15:04:01.766448
0.156535,+0000008,-0000019,-0000005,+0000041,-0000082,+0004137,-0000728,+0000414,-0002283,15:04:01.766448
0.156868,+0000020,-0000045,-0000006,+0000044,-0000067,+0004156,-0000730,+0000434,-0002296,15:04:01.766448
0.157201,+0000009,-0000032,-0000013,+0000028,-0000083,+0004162,-0000730,+0000434,-0002296,15:04:01.766448
0.157534,+0000035,-0000023,-0000023,+0000027,-0000075,+0004136,-0000730,+0000434,-0002296,15:04:01.766448
0.157867,+0000022,-0000026,-0000010,+0000031,-0000098,+0004151,-0000724,+0000420,-0002292,15:04:01.766448
0.158200,+0000011,-0000014,-0000007,+0000026,-0000099,+0004141,-0000724,+0000420,-0002292,15:04:01.766448
0.158533,+0000003,-0000011,-0000004,+0000046,-0000098,+0004162,-0000724,+0000420,-0002292,15:04:01.766448
0.158866,+0000014,-0000029,-0000006,+0000035,-0000077,+0004159,-0000714,+0000416,-0002301,15:04:01.766448
0.159199,+0000025,-0000032,-0000008,+0000034,-0000084,+0004147,-0000714,+0000416,-0002301,15:04:01.766448
0.159532,+0000014,-0000032,-0000013,+0000023,-0000089,+0004149,-0000714,+0000416,-0002301,15:04:01.766448
0.159865,+0000024,-0000029,-0000008,+0000019,-0000087,+0004143,-0000728,+0000428,-0002312,15:04:01.766448
0.160198,-0000003,-0000021,-0000010,+0000025,-0000104,+0004165,-0000728,+0000428,-0002312,15:04:01.766448
0.160531,+0000017,-0000007,+0000009,+0000046,-0000099,+0004156,-0000728,+0000428,-0002312,15:04:01.766448
0.160864,+0000009,-0000019,-0000011,+0000057,-0000090,+0004151,-0000720,+0000428,-0002309,15:04:01.766448
0.161197,+0000019,-0000030,-0000006,+0000038,-0000063,+0004161,-0000720,+0000428,-0002309,15:04:01.773459
0.161530,+0000016,-0000026,-0000005,+0000047,-0000076,+0004145,-0000720,+0000428,-0002309,15:04:01.774453
0.161863,+0000006,-0000033,-0000011,+0000044,-0000081,+0004154,-0000726,+0000442,-0002303,15:04:01.774453
0.162196,+0000016,-0000009,-0000016,+0000041,-0000082,+0004136,-0000726,+0000442,-0002303,15:04:01.774453
0.162529,+0000002,+0000000,+0000003,+0000049,-0000100,+0004171,-0000726,+0000442,-0002303,15:04:01.774453
0.162862,+0000019,-0000023,-0000005,+0000026,-0000098,+0004150,-0000730,+0000440,-0002302,15:04:01.774453
0.163195,+0000021,-0000031,-0000010,+0000067,-0000062,+0004161,-0000730,+0000440,-0002302,15:04:01.774453
0.163528,+0000024,-0000040,-0000018,+0000036,-0000082,+0004139,-0000730,+0000440,-0002302,15:04:01.774453
0.163861,+0000002,-0000024,-0000012,+0000054,-0000086,+0004158,-0000714,+0000426,-0002323,15:04:01.774453
0.164194,+0000003,-0000010,+0000001,+0000029,-0000078,+0004149,-0000714,+0000426,-0002323,15:04:01.774453
0.164527,+0000001,-0000021,+0000006,+0000037,-0000067,+0004142,-0000714,+0000426,-0002323,15:04:01.774453
0.164860,+0000017,-0000027,-0000008,+0000027,-0000088,+0004138,-0000740,+0000428,-0002309,15:04:01.774453
0.165193,+0000024,-0000045,-0000012,+0000032,-0000099,+0004169,-0000740,+0000428,-0002309,15:04:01.774453
0.165526,+0000018,-0000021,-0000002,+0000033,-0000097,+0004159,-0000740,+0000428,-0002309,15:04:01.774453
0.165859,+0000010,-0000013,-0000016,+0000039,-0000086,+0004140,-0000738,+0000410,-0002301,15:04:01.774453
0.166192,-0000006,+0000001,+0000011,+0000033,-0000094,+0004142,-0000738,+0000410,-0002301,15:04:01.774453
0.166525,+0000014,-0000019,-0000021,+0000028,-0000072,+0004143,-0000738,+0000410,-0002301,15:04:01.774453
0.166858,+0000014,-0000042,+0000001,+0000032,-0000094,+0004144,-0000738,+0000428,-0002298,15:04:01.774453
0.167191,+0000025,-0000048,-0000023,+0000025,-0000087,+0004167,-0000738,+0000428,-0002298,15:04:01.774453
0.167524,+0000013,-0000029,-0000003,+0000055,-0000083,+0004152,-0000738,+0000428,-0002298,15:04:01.774453
0.167857,-0000003,+0000000,+0000006,+0000028,-0000101,+0004167,-0000722,+0000414,-0002309,15:04:01.774453
0.168190,+0000014,-0000015,-0000003,+0000032,-0000089,+0004170,-0000722,+0000414,-0002309,15:04:01.774453
0.168523,+0000011,-0000018,-0000004,+0000037,-0000066,+0004156,-0000722,+0000414,-0002309,15:04:01.774453
0.168856,+0000037,-0000048,-0000011,+0000014,-0000089,+0004152,-0000718,+0000428,-0002319,15:04:01.774453
0.169189,+0000008,-0000029,-0000005,+0000039,-0000061,+0004148,-0000718,+0000428,-0002319,15:04:01.774453
0.169522,+0000013,-0000026,-0000021,+0000037,-0000076,+0004155,-0000718,+0000428,-0002319,15:04:01.774453
0.169855,+0000002,-0000008,+0000004,+0000046,-0000088,+0004138,-0000716,+0000416,-0002281,15:04:01.774453
0.170188,+0000017,-0000015,-0000015,+0000024,-0000070,+0004154,-0000716,+0000416,-0002281,15:04:01.774453
0.170521,+0000012,-0000020,-0000005,+0000036,-0000083,+0004145,-0000716,+0000416,-0002281,15:04:01.774453
0.170854,+0000027,-0000032,-0000015,+0000021,-0000080,+0004138,-0000716,+0000432,-0002319,15:04:01.774453
0.171187,+0000014,-0000012,-0000018,+0000037,-0000076,+0004141,-0000716,+0000432,-0002319,15:04:01.774453
0.171520,-0000004,-0000018,+0000003,+0000025,-0000093,+0004147,-0000716,+0000432,-0002319,15:04:01.774453
0.171853,+0000028,-0000023,-0000021,+0000042,-0000074,+0004161,-0000712,+0000428,-0002312,15:04:01.774453
0.172186,+0000007,-0000013,-0000003,+0000039,-0000096,+0004149,-0000712,+0000428,-0002312,15:04:01.774453
0.172519,+0000019,-0000023,-0000011,+0000041,-0000096,+0004143,-0000712,+0000428,-0002312,15:04:01.774453
0.172852,+0000025,-0000037,-0000010,+0000030,-0000082,+0004146,-0000726,+0000432,-0002322,15:04:01.774453
0.173185,+0000016,-0000029,-0000010,+0000032,-0000094,+0004160,-0000726,+0000432,-0002322,15:04:01.774453
0.173518,+0000025,-0000031,-0000013,+0000024,-0000104,+0004143,-0000726,+0000432,-0002322,15:04:01.774453
0.173851,+0000000,-0000019,-0000003,+0000037,-0000088,+0004154,-0000736,+0000432,-0002320,15:04:01.774453
0.174184,+0000014,-0000012,-0000014,+0000038,-0000109,+0004146,-0000736,+0000432,-0002320,15:04:01.774453
0.174517,+0000022,-0000034,-0000005,+0000051,-0000093,+0004173,-0000736,+0000432,-0002320,15:04:01.774453
0.174850,+0000024,-0000038,-0000007,+0000035,-0000081,+0004164,-0000722,+0000430,-0002290,15:04:01.774453
0.175183,+0000008,-0000026,-0000010,+0000031,-0000079,+0004164,-0000722,+0000430,-0002290,15:04:01.774453
0.175519,+0000019,-0000013,-0000016,+0000045,-0000086,+0004143,-0000722,+0000430,-0002290,15:04:01.774453
0.175849,+0000005,-0000010,-0000008,+0000038,-0000091,+0004160,-0000718,+0000428,-0002294,15:04:01.774453
0.176182,+0000022,-0000040,-0000008,+0000047,-0000085,+0004153,-0000718,+0000428,-0002294,15:04:01.774453
0.176515,+0000024,-0000040,-0000012,+0000022,-0000092,+0004158,-0000718,+0000428,-0002294,15:04:01.774453
0.176848,+0000015,-0000035,-0000002,+0000027,-0000098,+0004152,-0000732,+0000424,-0002299,15:04:01.774453
0.177181,+0000018,-0000028,-0000014,+0000020,-0000100,+0004159,-0000732,+0000424,-0002299,15:04:01.774453
0.177514,+0000007,-0000018,-0000013,+0000039,-0000081,+0004140,-0000732,+0000424,-0002299,15:04:01.774453
0.177847,-0000004,-0000004,+0000001,+0000050,-0000071,+0004162,-0000746,+0000412,-0002306,15:04:01.774453
0.178180,+0000008,-0000009,-0000005,+0000052,-0000101,+0004161,-0000746,+0000412,-0002306,15:04:01.774453
0.178513,+0000008,-0000036,+0000007,+0000032,-0000083,+0004148,-0000746,+0000412,-0002306,15:04:01.774453
0.178846,+0000025,-0000039,-0000019,+0000029,-0000088,+0004145,-0000728,+0000424,-0002315,15:04:01.774453
0.179179,+0000020,-0000032,-0000006,+0000032,-0000084,+0004140,-0000728,+0000424,-0002315,15:04:01.774453
0.179512,+0000010,-0000018,-0000008,+0000027,-0000084,+0004134,-0000728,+0000424,-0002315,15:04:01.774453
0.179845,-0000023,+0000003,+0000006,+0000045,-0000083,+0004136,-0000722,+0000424,-0002318,15:04:01.774453
0.180178,+0000025,-0000024,-0000008,+0000032,-0000088,+0004163,-0000722,+0000424,-0002318,15:04:01.774453
0.180511,+0000021,-0000035,-0000013,+0000017,-0000087,+0004145,-0000722,+0000424,-0002318,15:04:01.774453
0.180844,+0000019,-0000034,-0000011,+0000032,-0000092,+0004145,-0000720,+0000420,-0002323,15:04:01.774453
0.181177,+0000019,-0000021,-0000019,+0000040,-0000084,+0004159,-0000720,+0000420,-0002323,15:04:01.778151
0.181510,+0000008,-0000005,-0000013,+0000039,-0000093,+0004163,-0000720,+0000420,-0002323,15:04:01.778151
0.181843,-0000009,-0000020,+0000000,+0000034,-0000079,+0004150,-0000730,+0000410,-0002296,15:04:01.778151
0.182176,+0000028,-0000016,-0000004,+0000040,-0000078,+0004152,-0000730,+0000410,-0002296,15:04:01.778151
0.182509,+0000021,-0000038,-0000010,+0000034,-0000103,+0004158,-0000730,+0000410,-0002296,15:04:01.778151
0.182842,+0000027,-0000034,-0000018,+0000022,-0000072,+0004159,-0000728,+0000436,-0002314,15:04:01.778151
0.183175,+0000007,-0000018,-0000002,+0000037,-0000097,+0004153,-0000728,+0000436,-0002314,15:04:01.778151
0.183508,+0000006,-0000003,-0000008,+0000052,-0000101,+0004140,-0000728,+0000436,-0002314,15:04:01.778151
0.183841,+0000010,-0000024,-0000004,+0000025,-0000081,+0004152,-0000726,+0000418,-0002281,15:04:01.778151
0.184174,+0000016,-0000027,+0000005,+0000044,-0000088,+0004162,-0000726,+0000418,-0002281,15:04:01.778151
0.184507,+0000027,-0000039,-0000018,+0000044,-0000084,+0004182,-0000726,+0000418,-0002281,15:04:01.778151
0.184840,+0000024,-0000012,-0000016,+0000056,-0000091,+0004158,-0000740,+0000416,-0002323,15:04:01.778151
0.185173,+0000000,-0000019,-0000003,+0000037,-0000089,+0004159,-0000740,+0000416,-0002323,15:04:01.778151
0.185506,+0000013,-0000015,-0000012,+0000033,-0000082,+0004157,-0000740,+0000416,-0002323,15:04:01.778151
0.185839,+0000014,-0000023,-0000008,+0000036,-0000092,+0004168,-0000748,+0000418,-0002352,15:04:01.778151
0.186172,+0000006,-0000020,+0000001,+0000036,-0000084,+0004159,-0000748,+0000418,-0002352,15:04:01.778151
0.186505,+0000035,-0000037,-0000007,+0000039,-0000076,+0004160,-0000748,+0000418,-0002352,15:04:01.778151
0.186838,+0000022,-0000029,-0000011,+0000037,-0000069,+0004153,-0000732,+0000404,-0002314,15:04:01.778151
0.187171,+0000011,-0000021,-0000015,+0000046,-0000090,+0004166,-0000732,+0000404,-0002314,15:04:01.778151
0.187504,+0000011,-0000020,-0000013,+0000051,-0000108,+0004147,-0000732,+0000404,-0002314,15:04:01.778151
0.187837,+0000000,-0000008,-0000002,+0000035,-0000060,+0004171,-0000722,+0000404,-0002301,15:04:01.778151
0.188170,+0000020,-0000020,-0000008,+0000027,-0000103,+0004150,-0000722,+0000404,-0002301,15:04:01.778151
0.188503,+0000011,-0000037,-0000010,+0000024,-0000097,+0004133,-0000722,+0000404,-0002301,15:04:01.778151
0.188836,+0000021,-0000020,-0000011,+0000045,-0000092,+0004151,-0000720,+0000422,-0002300,15:04:01.778151
0.189169,+0000011,-0000026,-0000011,+0000038,-0000083,+0004132,-0000720,+0000422,-0002300,15:04:01.778151
0.189502,+0000013,-0000015,-0000010,+0000044,-0000095,+0004130,-0000720,+0000422,-0002300,15:04:01.778151
0.189835,-0000005,-0000008,-0000002,+0000050,-0000085,+0004159,-0000718,+0000418,-0002325,15:04:01.778151
0.190168,+0000011,-0000029,-0000010,+0000042,-0000073,+0004163,-0000718,+0000418,-0002325,15:04:01.778151
0.190501,+0000029,-0000031,-0000002,+0000043,-0000094,+0004155,-0000718,+0000418,-0002325,15:04:01.778151
0.190834,+0000022,-0000029,-0000018,+0000035,-0000087,+0004145,-0000738,+0000402,-0002318,15:04:01.778151
0.191167,-0000003,-0000016,+0000004,+0000040,-0000086,+0004137,-0000738,+0000402,-0002318,15:04:01.778151
0.191500,+0000008,+0000000,-0000013,+0000027,-0000099,+0004151,-0000738,+0000402,-0002318,15:04:01.778151
0.191833,-0000003,-0000007,-0000003,+0000048,-0000099,+0004159,-0000744,+0000418,-0002314,15:04:01.778151
0.192166,+0000017,-0000024,-0000008,+0000046,-0000074,+0004158,-0000744,+0000418,-0002314,15:04:01.778151
0.192512,+0000022,-0000043,-0000019,+0000042,-0000065,+0004151,-0000744,+0000418,-0002314,15:04:01.778151
0.192834,+0000014,-0000029,+0000000,+0000036,-0000085,+0004138,-0000730,+0000422,-0002333,15:04:01.822105
0.193167,+0000006,-0000007,-0000013,+0000063,-0000084,+0004146,-0000730,+0000422,-0002333,15:04:01.822105
0.193505,+0000019,-0000020,-0000005,+0000034,-0000081,+0004158,-0000730,+0000422,-0002333,15:04:01.822105
0.194004,+0000002,-0000018,+0000006,+0000041,-0000090,+0004141,-0000732,+0000426,-0002288,15:04:01.822105
0.194288,+0000027,-0000018,+0000006,+0000058,-0000097,+0004146,-0000732,+0000426,-0002288,15:04:01.822105
0.194605,+0000003,-0000018,-0000008,+0000017,-0000105,+0004146,-0000732,+0000426,-0002288,15:04:01.822105
0.194977,-0000003,-0000021,-0000002,+0000042,-0000087,+0004151,-0000726,+0000402,-0002298,15:04:01.822105
0.195213,+0000025,-0000034,-0000018,+0000037,-0000089,+0004152,-0000726,+0000402,-0002298,15:04:01.822105
0.195498,+0000016,-0000035,-0000011,+0000039,-0000093,+0004143,-0000726,+0000402,-0002298,15:04:01.823106
0.195853,+0000022,-0000032,-0000010,+0000048,-0000080,+0004143,-0000726,+0000422,-0002292,15:04:01.823106
0.196162,+0000009,-0000029,-0000006,+0000053,-0000093,+0004171,-0000726,+0000422,-0002292,15:04:01.823106
0.196508,+0000020,-0000016,+0000000,+0000042,-0000095,+0004136,-0000726,+0000422,-0002292,15:04:01.823106
0.196830,+0000008,-0000010,-0000021,+0000042,-0000067,+0004141,-0000712,+0000406,-0002278,15:04:01.823106
0.197161,+0000006,-0000010,+0000000,+0000025,-0000080,+0004128,-0000712,+0000406,-0002278,15:04:01.823106
0.197497,+0000011,-0000022,-0000015,+0000035,-0000079,+0004149,-0000712,+0000406,-0002278,15:04:01.823106
0.197827,+0000019,-0000031,+0000000,+0000025,-0000089,+0004139,-0000728,+0000434,-0002311,15:04:01.823106
0.198160,+0000014,-0000034,-0000015,+0000031,-0000096,+0004154,-0000728,+0000434,-0002311,15:04:01.823106
0.198493,+0000041,-0000024,-0000010,+0000041,-0000092,+0004146,-0000728,+0000434,-0002311,15:04:01.823106
0.198827,+0000021,-0000018,-0000007,+0000036,-0000093,+0004132,-0000722,+0000404,-0002284,15:04:01.823106
0.199159,-0000005,-0000018,-0000002,+0000050,-0000088,+0004139,-0000722,+0000404,-0002284,15:04:01.823106
0.199492,+0000017,-0000002,-0000010,+0000046,-0000081,+0004155,-0000722,+0000404,-0002284,15:04:01.823106
0.199827,+0000013,-0000050,-0000012,+0000038,-0000099,+0004153,-0000724,+0000408,-0002307,15:04:01.823106
0.200158,+0000020,-0000032,-0000010,+0000044,-0000085,+0004163,-0000724,+0000408,-0002307,15:04:01.823106
0.200491,+0000014,-0000044,-0000019,+0000051,-0000073,+0004152,-0000724,+0000408,-0002307,15:04:01.823106
0.200827,+0000003,-0000026,-0000002,+0000038,-0000064,+0004162,-0000722,+0000422,-0002294,15:04:01.823106
0.201157,+0000022,-0000003,-0000007,+0000055,-0000076,+0004181,-0000722,+0000422,-0002294,15:04:01.823106
0.201492,+0000000,-0000024,-0000007,+0000042,-0000078,+0004158,-0000722,+0000422,-0002294,15:04:01.823106
0.201862,+0000021,-0000042,-0000014,+0000037,-0000075,+0004150,-0000736,+0000428,-0002270,15:04:01.823106
0.202153,+0000020,-0000026,-0000008,+0000032,-0000099,+0004155,-0000736,+0000428,-0002270,15:04:01.823106
0.202490,+0000027,-0000036,-0000014,+0000045,-0000078,+0004150,-0000736,+0000428,-0002270,15:04:01.824105
0.202825,+0000009,-0000019,-0000008,+0000032,-0000083,+0004164,-0000706,+0000432,-0002305,15:04:01.824105
0.203156,+0000011,-0000036,-0000008,+0000033,-0000086,+0004157,-0000706,+0000432,-0002305,15:04:01.824105
0.203490,+0000013,-0000007,-0000008,+0000029,-0000060,+0004150,-0000706,+0000432,-0002305,15:04:01.824105
0.203823,+0000013,-0000021,-0000014,+0000033,-0000084,+0004150,-0000748,+0000424,-0002297,15:04:01.824105
0.204155,+0000019,-0000029,-0000005,+0000031,-0000062,+0004155,-0000748,+0000424,-0002297,15:04:01.824105
0.204487,+0000013,-0000036,-0000010,+0000043,-0000093,+0004144,-0000748,+0000424,-0002297,15:04:01.824105
0.204823,+0000014,-0000029,-0000016,+0000044,-0000087,+0004139,-0000748,+0000422,-0002290,15:04:01.824105
0.205154,-0000001,-0000015,+0000000,+0000042,-0000073,+0004158,-0000748,+0000422,-0002290,15:04:01.824105
0.205487,+0000007,-0000007,+0000000,+0000064,-0000100,+0004146,-0000748,+0000422,-0002290,15:04:01.824105
0.205823,+0000017,-0000015,-0000011,+0000034,-0000075,+0004159,-0000728,+0000418,-0002322,15:04:01.824105
0.206152,+0000022,-0000048,-0000005,+0000027,-0000090,+0004168,-0000728,+0000418,-0002322,15:04:01.824105
0.206485,+0000000,-0000006,-0000018,+0000023,-0000101,+0004163,-0000728,+0000418,-0002322,15:04:01.824105
0.206823,+0000019,-0000024,+0000000,+0000040,-0000067,+0004141,-0000720,+0000414,-0002296,15:04:01.824105
0.207151,-0000002,-0000021,-0000003,+0000039,-0000086,+0004158,-0000720,+0000414,-0002296,15:04:01.824105
0.207484,+0000014,-0000029,+0000000,+0000030,-0000065,+0004148,-0000720,+0000414,-0002296,15:04:01.824105
0.207822,+0000025,-0000034,-0000011,+0000052,-0000068,+0004131,-0000708,+0000400,-0002303,15:04:01.824105
0.208150,+0000014,-0000040,-0000016,+0000039,-0000079,+0004160,-0000708,+0000400,-0002303,15:04:01.824105
0.208483,+0000017,-0000024,-0000011,+0000031,-0000095,+0004144,-0000708,+0000400,-0002303,15:04:01.824105
0.208821,-0000003,-0000004,-0000007,+0000044,-0000114,+0004150,-0000724,+0000412,-0002299,15:04:01.824105
0.209149,+0000006,-0000021,-0000005,+0000041,-0000088,+0004166,-0000724,+0000412,-0002299,15:04:01.824105
0.209482,+0000005,-0000029,+0000003,+0000040,-0000099,+0004156,-0000724,+0000412,-0002299,15:04:01.824105
0.209821,+0000038,-0000040,-0000018,+0000041,-0000092,+0004124,-0000722,+0000416,-0002289,15:04:01.824105
0.210148,+0000018,-0000025,-0000002,+0000031,-0000107,+0004158,-0000722,+0000416,-0002289,15:04:01.824105
0.210481,+0000003,-0000013,-0000012,+0000048,-0000082,+0004144,-0000722,+0000416,-0002289,15:04:01.824105
0.210820,+0000021,-0000013,-0000004,+0000064,-0000087,+0004160,-0000714,+0000410,-0002300,15:04:01.824105
0.211147,+0000010,-0000013,-0000008,+0000036,-0000083,+0004144,-0000714,+0000410,-0002300,15:04:01.824105
0.211480,+0000017,-0000024,+0000006,+0000036,-0000101,+0004160,-0000714,+0000410,-0002300,15:04:01.824105
0.211819,+0000021,-0000036,-0000019,+0000028,-0000099,+0004153,-0000726,+0000426,-0002290,15:04:01.824105
0.212146,+0000016,-0000026,-0000016,+0000062,-0000075,+0004136,-0000726,+0000426,-0002290,15:04:01.824105
0.212479,+0000013,-0000015,-0000014,+0000043,-0000078,+0004150,-0000726,+0000426,-0002290,15:04:01.824105
0.212818,+0000011,-0000011,-0000002,+0000038,-0000083,+0004160,-0000730,+0000432,-0002289,15:04:01.824105
0.213145,+0000013,-0000021,-0000015,+0000032,-0000103,+0004159,-0000730,+0000432,-0002289,15:04:01.824105
0.213478,+0000014,-0000023,+0000006,+0000053,-0000112,+0004150,-0000730,+0000432,-0002289,15:04:01.824105
0.213817,+0000032,-0000039,-0000016,+0000037,-0000104,+0004149,-0000724,+0000424,-0002319,15:04:01.828105
0.214144,+0000011,-0000029,-0000004,+0000047,-0000094,+0004152,-0000724,+0000424,-0002319,15:04:01.828105
0.214477,+0000013,-0000020,-0000004,+0000040,-0000087,+0004134,-0000724,+0000424,-0002319,15:04:01.828105
0.214816,+0000005,-0000024,-0000006,+0000045,-0000097,+0004161,-0000716,+0000430,-0002302,15:04:01.828105
0.215143,+0000014,-0000016,-0000003,+0000030,-0000089,+0004165,-0000716,+0000430,-0002302,15:04:01.828105
0.215476,+0000025,-0000035,-0000008,+0000043,-0000117,+0004154,-0000716,+0000430,-0002302,15:04:01.828105
0.215815,+0000019,-0000034,+0000000,+0000046,-0000098,+0004161,-0000716,+0000420,-0002303,15:04:01.828105
0.216142,+0000005,-0000027,-0000022,+0000053,-0000097,+0004160,-0000716,+0000420,-0002303,15:04:01.828105
0.216475,+0000013,-0000015,-0000006,+0000042,-0000095,+0004161,-0000716,+0000420,-0002303,15:04:01.828105
0.216814,+0000004,-0000015,+0000000,+0000038,-0000094,+0004161,-0000728,+0000424,-0002310,15:04:01.828105
0.217141,+0000013,-0000024,-0000018,+0000038,-0000112,+0004157,-0000728,+0000424,-0002310,15:04:01.828105
0.217474,+0000021,-0000027,-0000007,+0000037,-0000076,+0004155,-0000728,+0000424,-0002310,15:04:01.828105
0.217807,+0000024,-0000039,-0000010,+0000045,-0000098,+0004172,-0000728,+0000412,-0002311,15:04:01.828105
0.218140,+0000022,-0000020,-0000011,+0000025,-0000093,+0004160,-0000728,+0000412,-0002311,15:04:01.828105
0.218473,+0000017,-0000042,-0000019,+0000055,-0000088,+0004151,-0000728,+0000412,-0002311,15:04:01.828105
0.218806,+0000003,-0000002,-0000008,+0000053,-0000086,+0004147,-0000736,+0000410,-0002313,15:04:01.828105
0.219139,+0000012,-0000016,+0000000,+0000020,-0000086,+0004145,-0000736,+0000410,-0002313,15:04:01.828105
0.219472,+0000006,-0000037,-0000010,+0000036,-0000080,+0004149,-0000736,+0000410,-0002313,15:04:01.828105
0.219805,+0000025,-0000039,-0000015,+0000042,-0000085,+0004148,-0000726,+0000414,-0002294,15:04:01.828105
0.220138,+0000024,-0000031,-0000013,+0000032,-0000087,+0004155,-0000726,+0000414,-0002294,15:04:01.828105
0.220471,+0000008,-0000010,-0000013,+0000043,-0000094,+0004141,-0000726,+0000414,-0002294,15:04:01.828105
0.220804,-0000012,-0000005,+0000004,+0000036,-0000078,+0004145,-0000708,+0000412,-0002289,15:04:01.828105
0.221137,+0000017,-0000019,-0000008,+0000041,-0000087,+0004164,-0000708,+0000412,-0002289,15:04:01.828105
0.221470,+0000016,-0000034,-0000013,+0000031,-0000092,+0004140,-0000708,+0000412,-0002289,15:04:01.828105
0.221803,+0000025,-0000037,-0000006,+0000031,-0000098,+0004144,-0000714,+0000430,-0002334,15:04:01.828105
0.222136,+0000008,-0000039,-0000016,+0000047,-0000091,+0004150,-0000714,+0000430,-0002334,15:04:01.828105
0.222469,-0000011,+0000009,-0000002,+0000053,-0000112,+0004141,-0000714,+0000430,-0002334,15:04:01.828105
0.222802,+0000019,-0000007,-0000010,+0000037,-0000073,+0004155,-0000728,+0000426,-0002297,15:04:01.828105
0.223135,-0000003,-0000021,+0000001,+0000040,-0000100,+0004137,-0000728,+0000426,-0002297,15:04:01.828105
0.223468,+0000036,-0000029,-0000012,+0000045,-0000088,+0004156,-0000728,+0000426,-0002297,15:04:01.828105
0.223801,+0000009,-0000049,-0000010,+0000044,-0000085,+0004140,-0000724,+0000432,-0002285,15:04:01.828105
0.224134,+0000002,-0000010,-0000014,+0000055,-0000081,+0004145,-0000724,+0000432,-0002285,15:04:01.828105
0.224467,+0000002,-0000018,-0000018,+0000039,-0000090,+0004154,-0000724,+0000432,-0002285,15:04:01.828105
0.224800,+0000011,-0000013,+0000000,+0000048,-0000073,+0004160,-0000746,+0000428,-0002331,15:04:01.828105
0.225133,+0000027,-0000032,-0000011,+0000046,-0000079,+0004147,-0000746,+0000428,-0002331,15:04:01.828105
0.225466,-0000009,-0000016,+0000008,+0000048,-0000091,+0004161,-0000746,+0000428,-0002331,15:04:01.828105
0.225799,+0000020,-0000029,+0000000,+0000042,-0000091,+0004137,-0000728,+0000418,-0002324,15:04:01.828105
0.226132,+0000005,-0000015,-0000011,+0000039,-0000090,+0004153,-0000728,+0000418,-0002324,15:04:01.828105
0.226465,+0000022,-0000024,-0000008,+0000042,-0000097,+0004151,-0000728,+0000418,-0002324,15:04:01.828105
0.226798,+0000006,-0000018,-0000003,+0000028,-0000105,+0004157,-0000726,+0000410,-0002307,15:04:01.828105
0.227131,+0000018,-0000017,+0000000,+0000045,-0000099,+0004145,-0000726,+0000410,-0002307,15:04:01.828105
0.227464,+0000016,-0000044,+0000001,+0000030,-0000083,+0004142,-0000726,+0000410,-0002307,15:04:01.828105
0.227797,+0000019,-0000034,-0000002,+0000051,-0000097,+0004181,-0000712,+0000438,-0002306,15:04:01.828105
0.228130,+0000024,-0000031,-0000011,+0000037,-0000095,+0004165,-0000712,+0000438,-0002306,15:04:01.828105
0.228463,+0000010,-0000007,-0000008,+0000045,-0000093,+0004139,-0000712,+0000438,-0002306,15:04:01.828105
0.228796,+0000013,-0000018,-0000012,+0000046,-0000091,+0004131,-0000720,+0000416,-0002315,15:04:01.828105
0.229129,+0000025,-0000024,-0000007,+0000053,-0000082,+0004165,-0000720,+0000416,-0002315,15:04:01.828105
0.229462,+0000014,-0000023,+0000005,+0000039,-0000092,+0004155,-0000720,+0000416,-0002315,15:04:01.828105
0.229795,+0000016,-0000037,-0000030,+0000034,-0000086,+0004163,-0000722,+0000430,-0002309,15:04:01.828105
0.230128,+0000016,-0000029,+0000006,+0000064,-0000083,+0004152,-0000722,+0000430,-0002309,15:04:01.828105
0.230461,+0000008,-0000013,-0000010,+0000043,-0000110,+0004150,-0000722,+0000430,-0002309,15:04:01.828105
0.230794,+0000011,-0000023,-0000013,+0000040,-0000086,+0004139,-0000724,+0000428,-0002291,15:04:01.828105
0.231127,+0000016,-0000021,-0000014,+0000040,-0000091,+0004125,-0000724,+0000428,-0002291,15:04:01.828105
0.231460,+0000019,-0000032,-0000008,+0000041,-0000085,+0004152,-0000724,+0000428,-0002291,15:04:01.828105
0.231793,+0000009,-0000026,-0000008,+0000040,-0000088,+0004147,-0000718,+0000430,-0002325,15:04:01.829104
0.232126,+0000020,-0000023,-0000027,+0000037,-0000086,+0004158,-0000718,+0000430,-0002325,15:04:01.829104
0.232459,-0000002,-0000007,-0000002,+0000039,-0000095,+0004149,-0000718,+0000430,-0002325,15:04:01.829104
0.232792,+0000003,-0000026,-0000007,+0000042,-0000086,+0004162,-0000720,+0000424,-0002322,15:04:01.829104
0.233125,+0000017,-0000024,-0000003,+0000030,-0000080,+0004148,-0000720,+0000424,-0002322,15:04:01.829104
0.233458,+0000022,-0000024,-0000002,+0000031,-0000093,+0004148,-0000720,+0000424,-0002322,15:04:01.829104
0.233791,+0000036,-0000048,-0000029,+0000018,-0000076,+0004159,-0000726,+0000416,-0002315,15:04:01.829104
0.234124,+0000002,-0000015,+0000004,+0000027,-0000109,+0004158,-0000726,+0000416,-0002315,15:04:01.829104
0.234457,+0000008,-0000005,-0000005,+0000031,-0000097,+0004149,-0000726,+0000416,-0002315,15:04:01.829104
0.234790,-0000001,-0000023,+0000001,+0000029,-0000074,+0004154,-0000720,+0000434,-0002303,15:04:01.829104
0.235123,+0000027,-0000038,-0000016,+0000035,-0000096,+0004160,-0000720,+0000434,-0002303,15:04:01.829104
0.235456,+0000030,-0000037,+0000000,+0000037,-0000100,+0004151,-0000720,+0000434,-0002303,15:04:01.830104
0.235789,+0000024,-0000036,-0000016,+0000029,-0000094,+0004130,-0000738,+0000436,-0002298,15:04:01.830104
0.236122,+0000002,-0000002,-0000011,+0000046,-0000094,+0004159,-0000738,+0000436,-0002298,15:04:01.830104
0.236455,-0000001,-0000013,+0000000,+0000034,-0000093,+0004146,-0000738,+0000436,-0002298,15:04:01.830104
0.236788,+0000019,-0000029,-0000010,+0000040,-0000095,+0004155,-0000738,+0000432,-0002290,15:04:01.830104
0.237121,+0000016,-0000039,-0000012,+0000039,-0000086,+0004158,-0000738,+0000432,-0002290,15:04:01.830104
0.237454,+0000031,-0000029,-0000010,+0000046,-0000078,+0004152,-0000738,+0000432,-0002290,15:04:01.830104
0.237787,+0000031,-0000020,-0000014,+0000037,-0000092,+0004162,-0000718,+0000422,-0002283,15:04:01.830104
0.238120,-0000004,-0000023,-0000013,+0000045,-0000098,+0004138,-0000718,+0000422,-0002283,15:04:01.830104
0.238453,+0000011,-0000013,-0000010,+0000053,-0000084,+0004166,-0000718,+0000422,-0002283,15:04:01.830104
0.238786,+0000014,-0000029,-0000007,+0000029,-0000071,+0004155,-0000742,+0000434,-0002298,15:04:01.830104
0.239119,+0000017,-0000030,-0000005,+0000030,-0000088,+0004148,-0000742,+0000434,-0002298,15:04:01.830104
0.239452,+0000019,-0000031,-0000013,+0000043,-0000087,+0004132,-0000742,+0000434,-0002298,15:04:01.830104
0.239785,+0000006,-0000018,-0000011,+0000071,-0000096,+0004150,-0000742,+0000432,-0002297,15:04:01.830104
0.240118,+0000009,-0000011,-0000007,+0000053,-0000089,+0004161,-0000742,+0000432,-0002297,15:04:01.830104
0.240451,-0000011,-0000013,+0000004,+0000053,-0000091,+0004132,-0000742,+0000432,-0002297,15:04:01.830104
0.240784,+0000017,-0000024,-0000024,+0000046,-0000080,+0004147,-0000732,+0000406,-0002334,15:04:01.830104
0.241117,+0000026,-0000029,-0000002,+0000026,-0000079,+0004135,-0000732,+0000406,-0002334,15:04:01.830104
0.241450,+0000030,-0000038,-0000010,+0000042,-0000074,+0004148,-0000732,+0000406,-0002334,15:04:01.830104
0.241783,+0000006,-0000021,-0000010,+0000046,-0000073,+0004126,-0000736,+0000428,-0002297,15:04:01.830104
0.242116,+0000003,-0000010,-0000012,+0000047,-0000069,+0004142,-0000736,+0000428,-0002297,15:04:01.830104
0.242449,+0000006,-0000024,-0000002,+0000029,-0000065,+0004152,-0000736,+0000428,-0002297,15:04:01.830104
0.242782,+0000010,-0000016,-0000008,+0000044,-0000092,+0004143,-0000744,+0000426,-0002327,15:04:01.866682
0.243118,+0000021,-0000024,-0000021,+0000024,-0000088,+0004131,-0000744,+0000426,-0002327,15:04:01.866682
0.243453,+0000017,-0000024,-0000013,+0000035,-0000095,+0004154,-0000744,+0000426,-0002327,15:04:01.866682
0.243975,+0000008,-0000028,-0000003,+0000055,-0000080,+0004147,-0000740,+0000412,-0002279,15:04:01.866682
0.244261,+0000025,-0000024,-0000010,+0000060,-0000091,+0004153,-0000740,+0000412,-0002279,15:04:01.866682
0.244649,+0000008,-0000010,-0000006,+0000036,-0000060,+0004136,-0000740,+0000412,-0002279,15:04:01.866682
0.244852,+0000009,-0000026,-0000002,+0000015,-0000060,+0004136,-0000728,+0000408,-0002303,15:04:01.866682
0.245115,+0000022,-0000016,-0000021,+0000019,-0000103,+0004157,-0000728,+0000408,-0002303,15:04:01.866682
0.245451,+0000006,-0000013,-0000001,+0000030,-0000085,+0004150,-0000728,+0000408,-0002303,15:04:01.866682
0.245779,+0000016,-0000023,-0000005,+0000027,-0000066,+0004147,-0000738,+0000406,-0002297,15:04:01.866682
0.246114,+0000013,-0000021,-0000011,+0000041,-0000088,+0004171,-0000738,+0000406,-0002297,15:04:01.866682
0.246447,+0000008,-0000027,-0000016,+0000027,-0000092,+0004140,-0000738,+0000406,-0002297,15:04:01.866682
0.246778,+0000019,-0000024,-0000004,+0000047,-0000081,+0004143,-0000738,+0000414,-0002305,15:04:01.868649
0.247111,+0000024,-0000056,-0000002,+0000024,-0000082,+0004141,-0000738,+0000414,-0002305,15:04:01.868649
0.247444,+0000024,-0000029,-0000019,+0000040,-0000092,+0004163,-0000738,+0000414,-0002305,15:04:01.868649
0.247777,+0000003,-0000024,-0000007,+0000034,-0000091,+0004150,-0000734,+0000420,-0002305,15:04:01.868649
0.248110,+0000005,-0000007,-0000010,+0000042,-0000087,+0004151,-0000734,+0000420,-0002305,15:04:01.868649
0.248443,+0000016,-0000008,-0000007,+0000060,-0000072,+0004129,-0000734,+0000420,-0002305,15:04:01.868649
0.248776,+0000024,-0000040,-0000007,+0000039,-0000068,+0004146,-0000724,+0000426,-0002283,15:04:01.868649
0.249109,+0000021,-0000030,-0000011,+0000038,-0000085,+0004152,-0000724,+0000426,-0002283,15:04:01.868649
0.249442,+0000020,-0000029,-0000010,+0000032,-0000084,+0004149,-0000724,+0000426,-0002283,15:04:01.868649
0.249775,-0000013,+0000006,-0000005,+0000033,-0000089,+0004152,-0000744,+0000428,-0002298,15:04:01.868649
0.250110,+0000019,-0000015,-0000014,+0000046,-0000100,+0004154,-0000744,+0000428,-0002298,15:04:01.868649
0.250631,+0000021,-0000031,-0000024,+0000042,-0000091,+0004143,-0000744,+0000428,-0002298,15:04:01.868649
0.250824,+0000021,-0000031,-0000024,+0000042,-0000083,+0004146,-0000730,+0000432,-0002295,15:04:01.868649
0.251108,+0000010,+0000001,+0000001,+0000043,-0000086,+0004166,-0000730,+0000432,-0002295,15:04:01.868649
0.251482,+0000016,-0000031,-0000013,+0000039,-0000080,+0004148,-0000730,+0000432,-0002295,15:04:01.868649
0.251773,+0000011,-0000015,-0000007,+0000034,-0000097,+0004146,-0000730,+0000414,-0002300,15:04:01.868649
0.252106,+0000018,-0000020,-0000002,+0000025,-0000105,+0004150,-0000730,+0000414,-0002300,15:04:01.868649
0.252439,+0000011,-0000026,-0000003,+0000029,-0000085,+0004147,-0000730,+0000414,-0002300,15:04:01.868649
0.252772,+0000028,-0000033,-0000003,+0000059,-0000093,+0004152,-0000740,+0000420,-0002301,15:04:01.868649
0.253105,+0000017,-0000023,-0000021,+0000051,-0000071,+0004139,-0000740,+0000420,-0002301,15:04:01.868649
0.253439,-0000001,-0000018,-0000005,+0000041,-0000075,+0004154,-0000740,+0000420,-0002301,15:04:01.878647
0.253772,+0000017,-0000019,-0000011,+0000036,-0000089,+0004143,-0000714,+0000426,-0002323,15:04:01.878647
0.254105,-0000003,-0000005,-0000008,+0000047,-0000090,+0004152,-0000714,+0000426,-0002323,15:04:01.878647
0.254437,+0000019,-0000024,-0000005,+0000034,-0000084,+0004147,-0000714,+0000426,-0002323,15:04:01.878647
0.254770,+0000021,-0000040,-0000022,+0000028,-0000081,+0004148,-0000742,+0000422,-0002294,15:04:01.878647
0.255105,+0000019,-0000026,-0000011,+0000051,-0000089,+0004174,-0000742,+0000422,-0002294,15:04:01.878647
0.255436,+0000005,-0000015,+0000001,+0000036,-0000083,+0004153,-0000742,+0000422,-0002294,15:04:01.878647
0.255769,+0000005,-0000018,-0000007,+0000029,-0000093,+0004143,-0000742,+0000422,-0002321,15:04:01.878647
0.256102,+0000008,-0000009,-0000013,+0000052,-0000068,+0004151,-0000742,+0000422,-0002321,15:04:01.878647
0.256435,+0000011,-0000030,-0000003,+0000044,-0000091,+0004154,-0000742,+0000422,-0002321,15:04:01.878647
0.256768,+0000019,-0000026,-0000010,+0000048,-0000084,+0004142,-0000728,+0000414,-0002288,15:04:01.878647
0.257101,+0000014,-0000037,-0000021,+0000027,-0000068,+0004124,-0000728,+0000414,-0002288,15:04:01.878647
0.257434,+0000007,-0000008,-0000004,+0000031,-0000096,+0004137,-0000728,+0000414,-0002288,15:04:01.878647
0.257767,+0000011,-0000014,-0000016,+0000050,-0000086,+0004129,-0000742,+0000414,-0002293,15:04:01.878647
0.258100,+0000013,-0000021,-0000002,+0000037,-0000105,+0004169,-0000742,+0000414,-0002293,15:04:01.878647
0.258433,+0000019,-0000019,+0000006,+0000050,-0000076,+0004139,-0000742,+0000414,-0002293,15:04:01.878647
0.258766,+0000031,-0000036,-0000023,+0000036,-0000094,+0004144,-0000726,+0000424,-0002286,15:04:01.878647
0.259099,+0000014,-0000021,-0000004,+0000053,-0000095,+0004108,-0000726,+0000424,-0002286,15:04:01.878647
0.259432,+0000021,-0000021,-0000024,+0000045,-0000063,+0004133,-0000726,+0000424,-0002286,15:04:01.878647
0.259765,-0000006,+0000006,+0000006,+0000036,-0000101,+0004153,-0000736,+0000438,-0002294,15:04:01.878647
0.260098,-0000006,-0000023,-0000004,+0000046,-0000106,+0004158,-0000736,+0000438,-0002294,15:04:01.878647
0.260431,+0000025,-0000023,-0000003,+0000051,-0000098,+0004152,-0000736,+0000438,-0002294,15:04:01.878647
0.260764,+0000019,-0000036,-0000007,+0000021,-0000092,+0004152,-0000730,+0000426,-0002325,15:04:01.878647
0.261097,+0000030,-0000045,-0000014,+0000036,-0000081,+0004134,-0000730,+0000426,-0002325,15:04:01.878647
0.261430,-0000008,-0000015,-0000002,+0000049,-0000075,+0004161,-0000730,+0000426,-0002325,15:04:01.878647
0.261763,+0000007,-0000004,-0000011,+0000040,-0000077,+0004156,-0000728,+0000426,-0002277,15:04:01.878647
0.262096,+0000000,-0000016,+0000006,+0000052,-0000081,+0004151,-0000728,+0000426,-0002277,15:04:01.878647
0.262429,+0000025,-0000038,-0000012,+0000044,-0000093,+0004151,-0000728,+0000426,-0002277,15:04:01.878647
0.262762,+0000027,-0000042,-0000010,+0000034,-0000090,+0004153,-0000748,+0000402,-0002299,15:04:01.878647
0.263095,+0000010,-0000020,-0000010,+0000030,-0000089,+0004161,-0000748,+0000402,-0002299,15:04:01.878647
0.263428,-0000003,+0000014,+0000009,+0000025,-0000087,+0004147,-0000748,+0000402,-0002299,15:04:01.878647
0.263761,+0000016,-0000018,-0000019,+0000047,-0000086,+0004139,-0000732,+0000422,-0002312,15:04:01.878647
0.264094,+0000003,-0000024,-0000007,+0000034,-0000090,+0004143,-0000732,+0000422,-0002312,15:04:01.878647
0.264427,+0000011,-0000032,+0000003,+0000031,-0000096,+0004149,-0000732,+0000422,-0002312,15:04:01.878647
0.264760,+0000028,-0000042,-0000024,+0000022,-0000107,+0004156,-0000746,+0000410,-0002314,15:04:01.878647
0.265093,+0000013,-0000018,-0000010,+0000033,-0000106,+0004145,-0000746,+0000410,-0002314,15:04:01.878647
0.265426,+0000010,-0000023,-0000011,+0000016,-0000096,+0004163,-0000746,+0000410,-0002314,15:04:01.878647
0.265759,+0000010,-0000008,-0000008,+0000047,-0000094,+0004142,-0000742,+0000428,-0002304,15:04:01.878647
0.266092,+0000014,-0000021,+0000003,+0000042,-0000095,+0004156,-0000742,+0000428,-0002304,15:04:01.878647
0.266425,+0000016,-0000044,-0000007,+0000037,-0000087,+0004151,-0000742,+0000428,-0002304,15:04:01.878647
0.266758,+0000022,-0000019,-0000013,+0000030,-0000104,+0004148,-0000728,+0000432,-0002297,15:04:01.878647
0.267091,+0000011,-0000008,-0000002,+0000032,-0000071,+0004146,-0000728,+0000432,-0002297,15:04:01.878647
0.267424,+0000006,-0000011,-0000010,+0000044,-0000076,+0004155,-0000728,+0000432,-0002297,15:04:01.878647
0.267757,-0000001,-0000021,-0000010,+0000028,-0000080,+0004156,-0000742,+0000432,-0002294,15:04:01.878647
0.268090,+0000008,-0000024,-0000005,+0000044,-0000092,+0004138,-0000742,+0000432,-0002294,15:04:01.878647
0.268423,+0000025,-0000040,-0000013,+0000058,-0000062,+0004158,-0000742,+0000432,-0002294,15:04:01.878647
0.268756,+0000020,-0000028,-0000002,+0000046,-0000093,+0004149,-0000732,+0000432,-0002296,15:04:01.878647
0.269089,+0000005,-0000020,-0000022,+0000046,-0000104,+0004148,-0000732,+0000432,-0002296,15:04:01.878647
0.269422,+0000027,-0000008,-0000010,+0000054,-0000075,+0004139,-0000732,+0000432,-0002296,15:04:01.878647
0.269755,-0000004,-0000008,-0000007,+0000044,-0000108,+0004163,-0000730,+0000422,-0002290,15:04:01.878647
0.270088,+0000016,-0000024,-0000012,+0000017,-0000093,+0004138,-0000730,+0000422,-0002290,15:04:01.878647
0.270421,+0000014,-0000024,-0000016,+0000038,-0000092,+0004145,-0000730,+0000422,-0002290,15:04:01.878647
0.270754,+0000016,-0000042,-0000018,+0000027,-0000112,+0004169,-0000740,+0000428,-0002291,15:04:01.878647
0.271087,+0000010,-0000018,+0000006,+0000055,-0000099,+0004178,-0000740,+0000428,-0002291,15:04:01.878647
0.271420,+0000006,-0000010,-0000022,+0000036,-0000099,+0004157,-0000740,+0000428,-0002291,15:04:01.878647
0.271753,-0000004,-0000016,-0000008,+0000032,-0000103,+0004159,-0000726,+0000426,-0002312,15:04:01.878647
0.272086,+0000000,-0000018,-0000013,+0000032,-0000096,+0004159,-0000726,+0000426,-0002312,15:04:01.878647
0.272419,+0000019,-0000026,-0000005,+0000021,-0000095,+0004151,-0000726,+0000426,-0002312,15:04:01.878647
0.272752,+0000013,-0000042,-0000018,+0000036,-0000082,+0004148,-0000744,+0000436,-0002300,15:04:01.878647
0.273085,+0000019,-0000029,-0000011,+0000051,-0000075,+0004149,-0000744,+0000436,-0002300,15:04:01.878647
0.273418,-0000001,-0000015,+0000000,+0000021,-0000087,+0004158,-0000744,+0000436,-0002300,15:04:01.878647
0.273751,+0000008,-0000018,-0000008,+0000012,-0000106,+0004163,-0000724,+0000432,-0002320,15:04:01.878647
0.274084,+0000011,-0000026,-0000002,+0000051,-0000088,+0004149,-0000724,+0000432,-0002320,15:04:01.878647
0.274417,+0000016,-0000044,-0000008,+0000044,-0000088,+0004149,-0000724,+0000432,-0002320,15:04:01.878647
0.274750,+0000033,-0000032,-0000021,+0000014,-0000090,+0004162,-0000734,+0000406,-0002308,15:04:01.878647
0.275083,-0000006,-0000013,-0000007,+0000041,-0000056,+0004154,-0000734,+0000406,-0002308,15:04:01.878647
0.275416,+0000008,-0000002,-0000011,+0000037,-0000060,+0004165,-0000734,+0000406,-0002308,15:04:01.878647
0.275749,+0000005,-0000015,+0000007,+0000030,-0000088,+0004151,-0000756,+0000420,-0002317,15:04:01.878647
0.276082,+0000016,-0000048,-0000022,+0000063,-0000078,+0004162,-0000756,+0000420,-0002317,15:04:01.878647
0.276415,+0000022,-0000029,+0000006,+0000038,-0000112,+0004157,-0000756,+0000420,-0002317,15:04:01.878647
0.276748,+0000027,-0000035,-0000013,+0000044,-0000071,+0004144,-0000750,+0000424,-0002316,15:04:01.878647
0.277081,+0000010,-0000005,+0000006,+0000049,-0000060,+0004146,-0000750,+0000424,-0002316,15:04:01.878647
0.277414,+0000002,-0000016,-0000008,+0000043,-0000080,+0004142,-0000750,+0000424,-0002316,15:04:01.878647
0.277747,+0000012,-0000016,+0000001,+0000041,-0000084,+0004142,-0000732,+0000438,-0002307,15:04:01.878647
0.278081,+0000017,-0000034,-0000005,+0000042,-0000084,+0004169,-0000732,+0000438,-0002307,15:04:01.878647
0.278413,+0000042,-0000045,-0000021,+0000033,-0000095,+0004132,-0000732,+0000438,-0002307,15:04:01.878647
0.278746,+0000009,-0000008,-0000007,+0000037,-0000109,+0004151,-0000728,+0000422,-0002275,15:04:01.878647
0.279079,+0000011,-0000021,-0000013,+0000034,-0000094,+0004139,-0000728,+0000422,-0002275,15:04:01.878647
0.279412,+0000008,-0000006,+0000003,+0000046,-0000089,+0004162,-0000728,+0000422,-0002275,15:04:01.878647
0.279745,+0000008,-0000032,-0000010,+0000037,-0000086,+0004145,-0000738,+0000424,-0002299,15:04:01.878647
0.280078,+0000016,-0000026,-0000014,+0000048,-0000108,+0004157,-0000738,+0000424,-0002299,15:04:01.878647
0.280411,+0000034,-0000015,+0000001,+0000041,-0000084,+0004142,-0000738,+0000424,-0002299,15:04:01.878647
0.280744,+0000005,-0000018,-0000012,+0000035,-0000094,+0004156,-0000736,+0000418,-0002302,15:04:01.878647
0.281077,+0000011,-0000021,-0000007,+0000030,-0000092,+0004184,-0000736,+0000418,-0002302,15:04:01.878647
0.281410,+0000024,-0000017,-0000015,+0000050,-0000088,+0004165,-0000736,+0000418,-0002302,15:04:01.878647
0.281743,+0000003,-0000023,-0000011,+0000036,-0000061,+0004156,-0000748,+0000430,-0002339,15:04:01.878647
0.282076,+0000011,-0000037,-0000019,+0000034,-0000100,+0004166,-0000748,+0000430,-0002339,15:04:01.878647
0.282409,+0000013,-0000021,-0000008,+0000045,-0000071,+0004163,-0000748,+0000430,-0002339,15:04:01.878647
0.282742,+0000010,-0000026,-0000007,+0000041,-0000089,+0004166,-0000742,+0000406,-0002314,15:04:01.878647
0.283075,+0000019,-0000013,-0000015,+0000032,-0000092,+0004151,-0000742,+0000406,-0002314,15:04:01.878647
0.283408,+0000005,-0000016,-0000005,+0000026,-0000091,+0004168,-0000742,+0000406,-0002314,15:04:01.878647
0.283741,+0000008,-0000023,-0000008,+0000043,-0000099,+0004146,-0000736,+0000416,-0002311,15:04:01.878647
0.284074,+0000008,-0000034,-0000013,+0000023,-0000083,+0004152,-0000736,+0000416,-0002311,15:04:01.878647
0.284407,+0000036,-0000039,-0000014,+0000044,-0000082,+0004167,-0000736,+0000416,-0002311,15:04:01.878647
0.284740,+0000011,-0000014,-0000002,+0000030,-0000096,+0004178,-0000738,+0000420,-0002308,15:04:01.878647
0.285073,+0000000,-0000010,+0000000,+0000037,-0000106,+0004154,-0000738,+0000420,-0002308,15:04:01.878647
0.285406,+0000013,-0000018,-0000016,+0000032,-0000084,+0004159,-0000738,+0000420,-0002308,15:04:01.878647
0.285739,+0000000,-0000019,+0000000,+0000048,-0000101,+0004149,-0000736,+0000414,-0002296,15:04:01.878647
0.286072,+0000020,-0000026,-0000007,+0000024,-0000075,+0004162,-0000736,+0000414,-0002296,15:04:01.878647
0.286405,+0000013,-0000037,-0000014,+0000030,-0000090,+0004159,-0000736,+0000414,-0002296,15:04:01.878647
0.286738,+0000019,-0000029,-0000016,+0000038,-0000098,+0004138,-0000724,+0000420,-0002291,15:04:01.878647
0.287071,+0000011,-0000010,-0000008,+0000052,-0000086,+0004138,-0000724,+0000420,-0002291,15:04:01.878647
0.287404,+0000004,-0000023,-0000014,+0000038,-0000098,+0004178,-0000724,+0000420,-0002291,15:04:01.878647
0.287737,+0000025,-0000036,-0000008,+0000030,-0000064,+0004157,-0000748,+0000416,-0002295,15:04:01.878647
0.288070,+0000024,-0000037,-0000008,+0000048,-0000073,+0004176,-0000748,+0000416,-0002295,15:04:01.878647
0.288403,+0000017,-0000034,-0000007,+0000052,-0000080,+0004146,-0000748,+0000416,-0002295,15:04:01.878647
0.288736,+0000008,-0000018,-0000007,+0000031,-0000091,+0004148,-0000734,+0000420,-0002289,15:04:01.878647
0.289069,-0000005,-0000004,-0000002,+0000053,-0000070,+0004169,-0000734,+0000420,-0002289,15:04:01.878647
0.289402,+0000008,-0000021,-0000016,+0000049,-0000092,+0004148,-0000734,+0000420,-0002289,15:04:01.878647
0.289735,+0000017,-0000021,+0000001,+0000041,-0000074,+0004146,-0000744,+0000410,-0002302,15:04:01.878647
0.290068,+0000025,-0000037,-0000021,+0000029,-0000106,+0004158,-0000744,+0000410,-0002302,15:04:01.878647
0.290401,+0000041,-0000033,-0000005,+0000042,-0000077,+0004154,-0000744,+0000410,-0002302,15:04:01.878647
0.290734,-0000003,-0000006,-0000005,+0000049,-0000086,+0004160,-0000730,+0000412,-0002317,15:04:01.878647
0.291067,-0000003,-0000005,-0000005,+0000043,-0000100,+0004157,-0000730,+0000412,-0002317,15:04:01.878647
0.291400,+0000019,-0000030,-0000006,+0000037,-0000092,+0004159,-0000730,+0000412,-0002317,15:04:01.878647
0.291733,+0000019,-0000031,-0000008,+0000006,-0000082,+0004141,-0000716,+0000412,-0002276,15:04:01.878647
0.292066,+0000013,-0000041,-0000015,+0000027,-0000094,+0004161,-0000716,+0000412,-0002276,15:04:01.878647
0.292399,-0000003,-0000011,-0000007,+0000044,-0000104,+0004154,-0000716,+0000412,-0002276,15:04:01.878647
0.292735,+0000016,-0000028,-0000012,+0000042,-0000091,+0004173,-0000720,+0000418,-0002305,15:04:01.926656
0.293067,+0000003,-0000013,+0000006,+0000031,-0000099,+0004131,-0000720,+0000418,-0002305,15:04:01.926656
0.293401,+0000022,-0000032,-0000024,+0000050,-0000098,+0004160,-0000720,+0000418,-0002305,15:04:01.926656
0.294040,+0000013,-0000010,-0000008,+0000030,-0000083,+0004144,-0000726,+0000430,-0002296,15:04:01.926656
0.294313,-0000004,-0000010,-0000008,+0000062,-0000074,+0004138,-0000726,+0000430,-0002296,15:04:01.926656
0.294451,+0000002,-0000007,-0000007,+0000062,-0000074,+0004138,-0000726,+0000430,-0002296,15:04:01.926656
0.294898,+0000019,-0000029,+0000000,+0000051,-0000082,+0004146,-0000742,+0000404,-0002325,15:04:01.926656
0.295182,+0000019,-0000013,-0000012,+0000033,-0000089,+0004145,-0000742,+0000404,-0002325,15:04:01.926656
0.295495,+0000025,-0000018,-0000005,+0000025,-0000089,+0004146,-0000742,+0000404,-0002325,15:04:01.926656
0.295730,+0000025,-0000018,-0000017,+0000043,-0000092,+0004162,-0000742,+0000404,-0002291,15:04:01.926656
0.296067,+0000022,-0000044,-0000010,+0000039,-0000089,+0004152,-0000742,+0000404,-0002291,15:04:01.926656
0.296489,+0000014,-0000024,-0000008,+0000040,-0000083,+0004148,-0000742,+0000404,-0002291,15:04:01.926656
0.296728,+0000019,-0000046,-0000013,+0000057,-0000087,+0004148,-0000748,+0000416,-0002312,15:04:01.926656
0.297062,+0000009,-0000034,-0000007,+0000034,-0000077,+0004145,-0000748,+0000416,-0002312,15:04:01.926656
0.297413,+0000016,-0000030,-0000004,+0000029,-0000093,+0004139,-0000748,+0000416,-0002312,15:04:01.926656
0.297727,+0000013,-0000026,-0000008,+0000025,-0000076,+0004142,-0000746,+0000428,-0002304,15:04:01.928068
0.298061,+0000024,-0000024,-0000010,+0000060,-0000075,+0004148,-0000746,+0000428,-0002304,15:04:01.928068
0.298516,+0000013,-0000026,-0000018,+0000028,-0000089,+0004158,-0000746,+0000428,-0002304,15:04:01.928068
0.298726,+0000022,-0000026,-0000018,+0000028,-0000089,+0004158,-0000740,+0000422,-0002295,15:04:01.928068
0.299291,+0000003,-0000015,-0000002,+0000033,-0000079,+0004152,-0000740,+0000422,-0002295,15:04:01.928068
0.299459,+0000014,-0000030,-0000005,+0000038,-0000068,+0004152,-0000740,+0000422,-0002295,15:04:01.928068
0.299727,+0000013,-0000021,-0000010,+0000030,-0000095,+0004152,-0000734,+0000418,-0002287,15:04:01.928068
0.300058,+0000014,-0000021,-0000008,+0000040,-0000082,+0004161,-0000734,+0000418,-0002287,15:04:01.928068
0.300391,+0000017,-0000023,-0000018,+0000048,-0000087,+0004149,-0000734,+0000418,-0002287,15:04:01.928068
0.300726,+0000014,-0000016,-0000005,+0000054,-0000074,+0004173,-0000740,+0000418,-0002296,15:04:01.928068
0.301063,+0000010,-0000013,-0000015,+0000038,-0000098,+0004161,-0000740,+0000418,-0002296,15:04:01.928068
0.301390,+0000005,-0000031,-0000007,+0000043,-0000089,+0004146,-0000740,+0000418,-0002296,15:04:01.928068
0.301723,+0000018,-0000034,-0000008,+0000027,-0000077,+0004161,-0000734,+0000420,-0002294,15:04:01.928068
0.302056,+0000025,-0000027,-0000011,+0000039,-0000100,+0004159,-0000734,+0000420,-0002294,15:04:01.929072
0.302389,+0000027,-0000031,-0000010,+0000039,-0000082,+0004143,-0000734,+0000420,-0002294,15:04:01.929072
0.302722,+0000000,-0000004,-0000003,+0000034,-0000096,+0004160,-0000736,+0000432,-0002294,15:04:01.929072
0.303055,+0000022,-0000034,-0000006,+0000042,-0000100,+0004162,-0000736,+0000432,-0002294,15:04:01.929072
0.303388,+0000013,-0000039,-0000006,+0000062,-0000108,+0004164,-0000736,+0000432,-0002294,15:04:01.929072
0.303721,+0000018,-0000024,-0000007,+0000040,-0000075,+0004153,-0000734,+0000430,-0002294,15:04:01.929072
0.304056,+0000022,-0000043,-0000016,+0000044,-0000072,+0004169,-0000734,+0000430,-0002294,15:04:01.929072
0.304387,-0000001,-0000005,-0000007,+0000028,-0000070,+0004141,-0000734,+0000430,-0002294,15:04:01.929072
0.304720,+0000010,-0000005,-0000004,+0000038,-0000076,+0004169,-0000730,+0000414,-0002273,15:04:01.929072
0.305053,+0000027,-0000039,-0000002,+0000041,-0000095,+0004153,-0000730,+0000414,-0002273,15:04:01.929072
0.305386,+0000011,-0000040,-0000010,+0000036,-0000083,+0004141,-0000730,+0000414,-0002273,15:04:01.929072
0.305719,+0000018,-0000032,-0000013,+0000025,-0000097,+0004162,-0000736,+0000426,-0002282,15:04:01.929072
0.306052,+0000010,-0000011,-0000005,+0000061,-0000098,+0004146,-0000736,+0000426,-0002282,15:04:01.929072
0.306385,-0000001,-0000011,-0000007,+0000051,-0000077,+0004153,-0000736,+0000426,-0002282,15:04:01.929072
0.306718,+0000013,-0000012,-0000008,+0000052,-0000074,+0004150,-0000736,+0000412,-0002306,15:04:01.929072
0.307051,+0000016,-0000031,-0000010,+0000070,-0000089,+0004158,-0000736,+0000412,-0002306,15:04:01.929072
0.307384,+0000022,-0000028,-0000011,+0000037,-0000101,+0004165,-0000736,+0000412,-0002306,15:04:01.929072
0.307717,+0000017,-0000023,-0000018,+0000035,-0000091,+0004157,-0000724,+0000422,-0002297,15:04:01.929072
0.308050,+0000003,-0000015,-0000004,+0000044,-0000091,+0004146,-0000724,+0000422,-0002297,15:04:01.929072
0.308383,+0000021,+0000000,-0000016,+0000025,-0000084,+0004137,-0000724,+0000422,-0002297,15:04:01.929072
0.308716,-0000006,-0000026,-0000018,+0000040,-0000093,+0004139,-0000738,+0000422,-0002293,15:04:01.929072
0.309049,+0000011,-0000029,-0000007,+0000038,-0000097,+0004169,-0000738,+0000422,-0002293,15:04:01.929072
0.309382,+0000023,-0000034,-0000010,+0000035,-0000095,+0004154,-0000738,+0000422,-0002293,15:04:01.929072
0.309715,+0000024,-0000027,-0000016,+0000043,-0000100,+0004139,-0000744,+0000426,-0002295,15:04:01.929072
0.310048,+0000008,-0000028,-0000003,+0000047,-0000092,+0004145,-0000744,+0000426,-0002295,15:04:01.929072
0.310381,+0000016,-0000016,-0000010,+0000047,-0000089,+0004153,-0000744,+0000426,-0002295,15:04:01.929072
0.310714,+0000006,-0000010,-0000005,+0000029,-0000094,+0004150,-0000730,+0000424,-0002285,15:04:01.929072
0.311047,+0000013,-0000021,-0000013,+0000043,-0000081,+0004175,-0000730,+0000424,-0002285,15:04:01.929072
0.311380,+0000022,-0000034,+0000003,+0000038,-0000067,+0004158,-0000730,+0000424,-0002285,15:04:01.929072
0.311713,+0000016,-0000026,-0000016,+0000036,-0000079,+0004167,-0000740,+0000422,-0002306,15:04:01.929072
0.312046,+0000014,-0000023,-0000002,+0000047,-0000076,+0004155,-0000740,+0000422,-0002306,15:04:01.929072
0.312379,-0000003,-0000001,-0000018,+0000049,-0000083,+0004152,-0000740,+0000422,-0002306,15:04:01.929072
0.312712,+0000008,-0000010,+0000001,+0000049,-0000106,+0004164,-0000736,+0000420,-0002310,15:04:01.929072
0.313045,+0000017,-0000032,+0000003,+0000040,-0000069,+0004157,-0000736,+0000420,-0002310,15:04:01.929072
0.313378,+0000014,-0000034,-0000015,+0000034,-0000092,+0004138,-0000736,+0000420,-0002310,15:04:01.929072
0.313711,+0000030,-0000024,-0000005,+0000049,-0000076,+0004134,-0000738,+0000406,-0002269,15:04:01.929072
0.314044,+0000003,-0000034,-0000007,+0000036,-0000092,+0004131,-0000738,+0000406,-0002269,15:04:01.929072
0.314377,+0000001,-0000013,-0000018,+0000052,-0000080,+0004149,-0000738,+0000406,-0002269,15:04:01.929072
0.314710,+0000005,-0000016,-0000008,+0000047,-0000071,+0004152,-0000746,+0000436,-0002312,15:04:01.929072
0.315043,+0000019,-0000029,+0000001,+0000043,-0000084,+0004153,-0000746,+0000436,-0002312,15:04:01.929072
0.315376,+0000027,-0000048,-0000014,+0000036,-0000079,+0004162,-0000746,+0000436,-0002312,15:04:01.929072
0.315709,+0000020,-0000027,-0000002,+0000029,-0000089,+0004168,-0000754,+0000416,-0002279,15:04:01.929072
0.316042,+0000019,-0000024,-0000002,+0000030,-0000101,+0004151,-0000754,+0000416,-0002279,15:04:01.929072
0.316375,+0000008,-0000024,-0000007,+0000039,-0000090,+0004157,-0000754,+0000416,-0002279,15:04:01.929072
0.316708,+0000006,-0000013,-0000005,+0000027,-0000089,+0004171,-0000742,+0000426,-0002292,15:04:01.929072
0.317041,+0000025,-0000042,+0000001,+0000043,-0000081,+0004158,-0000742,+0000426,-0002292,15:04:01.929072
0.317374,+0000031,-0000039,-0000019,+0000046,-0000097,+0004172,-0000742,+0000426,-0002292,15:04:01.929072
0.317707,+0000024,-0000042,-0000002,+0000035,-0000094,+0004146,-0000738,+0000420,-0002307,15:04:01.929072
0.318040,-0000008,+0000006,-0000008,+0000042,-0000094,+0004146,-0000738,+0000420,-0002307,15:04:01.929072
0.318373,+0000005,-0000010,+0000012,+0000042,-0000068,+0004142,-0000738,+0000420,-0002307,15:04:01.929072
0.318706,+0000014,-0000024,-0000019,+0000016,-0000077,+0004155,-0000740,+0000426,-0002304,15:04:01.929072
0.319039,+0000027,-0000043,-0000007,+0000037,-0000108,+0004155,-0000740,+0000426,-0002304,15:04:01.929072
0.319372,+0000013,-0000027,-0000016,+0000047,-0000088,+0004149,-0000740,+0000426,-0002304,15:04:01.929072
0.319705,+0000000,-0000016,-0000005,+0000049,-0000086,+0004144,-0000726,+0000426,-0002289,15:04:01.929072
0.320038,+0000003,-0000029,-0000006,+0000031,-0000085,+0004151,-0000726,+0000426,-0002289,15:04:01.929072
0.320371,+0000019,-0000005,-0000010,+0000041,-0000080,+0004137,-0000726,+0000426,-0002289,15:04:01.929072
0.320704,+0000013,-0000034,-0000011,+0000030,-0000092,+0004163,-0000734,+0000434,-0002291,15:04:01.929072
0.321037,+0000019,-0000024,-0000004,+0000046,-0000068,+0004175,-0000734,+0000434,-0002291,15:04:01.929072
0.321370,+0000017,-0000013,+0000004,+0000029,-0000089,+0004168,-0000734,+0000434,-0002291,15:04:01.929072
0.321703,+0000013,-0000023,-0000013,+0000048,-0000090,+0004143,-0000726,+0000408,-0002307,15:04:01.929072
0.322036,+0000008,-0000008,-0000007,+0000038,-0000084,+0004153,-0000726,+0000408,-0002307,15:04:01.929072
0.322369,+0000011,-0000021,-0000016,+0000021,-0000084,+0004146,-0000726,+0000408,-0002307,15:04:01.929072
0.322702,+0000003,-0000021,+0000007,+0000024,-0000088,+0004156,-0000736,+0000418,-0002315,15:04:01.929072
0.323035,+0000019,-0000042,-0000008,+0000043,-0000099,+0004153,-0000736,+0000418,-0002315,15:04:01.929072
0.323368,+0000022,-0000031,-0000013,+0000048,-0000090,+0004156,-0000736,+0000418,-0002315,15:04:01.929072
0.323701,+0000011,-0000029,-0000008,+0000050,-0000073,+0004155,-0000734,+0000412,-0002312,15:04:01.929072
0.324034,+0000011,-0000008,-0000005,+0000031,-0000068,+0004163,-0000734,+0000412,-0002312,15:04:01.929072
0.324367,-0000006,-0000019,+0000004,+0000048,-0000091,+0004154,-0000734,+0000412,-0002312,15:04:01.929072
0.324700,+0000027,-0000024,-0000015,+0000036,-0000064,+0004135,-0000736,+0000436,-0002342,15:04:01.929072
0.325033,+0000006,-0000029,-0000013,+0000030,-0000087,+0004158,-0000736,+0000436,-0002342,15:04:01.929072
0.325366,+0000033,-0000032,-0000013,+0000043,-0000074,+0004151,-0000736,+0000436,-0002342,15:04:01.929072
0.325699,+0000006,-0000023,-0000005,+0000030,-0000093,+0004151,-0000740,+0000426,-0002288,15:04:01.929072
0.326032,+0000011,-0000008,-0000018,+0000043,-0000094,+0004162,-0000740,+0000426,-0002288,15:04:01.929072
0.326365,+0000016,-0000007,-0000003,+0000041,-0000104,+0004145,-0000740,+0000426,-0002288,15:04:01.929072
0.326698,+0000018,-0000021,-0000003,+0000036,-0000097,+0004154,-0000734,+0000436,-0002275,15:04:01.929072
0.327031,+0000028,-0000034,-0000011,+0000020,-0000070,+0004150,-0000734,+0000436,-0002275,15:04:01.929072
0.327364,+0000016,-0000029,-0000008,+0000035,-0000065,+0004146,-0000734,+0000436,-0002275,15:04:01.929072
0.327697,+0000006,-0000008,-0000015,+0000045,-0000072,+0004135,-0000728,+0000422,-0002314,15:04:01.929072
0.328030,+0000019,-0000021,-0000007,+0000028,-0000092,+0004160,-0000728,+0000422,-0002314,15:04:01.929072
0.328363,+0000006,-0000019,-0000016,+0000024,-0000108,+0004150,-0000728,+0000422,-0002314,15:04:01.929072
0.328696,+0000024,-0000039,-0000007,+0000041,-0000086,+0004140,-0000738,+0000420,-0002308,15:04:01.929072
0.329029,+0000016,-0000024,+0000001,+0000025,-0000091,+0004139,-0000738,+0000420,-0002308,15:04:01.929072
0.329362,+0000022,-0000035,-0000020,+0000055,-0000080,+0004141,-0000738,+0000420,-0002308,15:04:01.929072
0.329695,+0000010,-0000029,-0000016,+0000033,-0000094,+0004137,-0000734,+0000436,-0002299,15:04:01.930072
0.330028,+0000014,-0000016,+0000004,+0000042,-0000103,+0004144,-0000734,+0000436,-0002299,15:04:01.930072
0.330361,+0000011,-0000016,-0000006,+0000032,-0000090,+0004156,-0000734,+0000436,-0002299,15:04:01.930072
0.330694,+0000021,-0000034,-0000002,+0000039,-0000086,+0004135,-0000744,+0000430,-0002314,15:04:01.930072
0.331027,+0000021,-0000029,-0000018,+0000037,-0000094,+0004154,-0000744,+0000430,-0002314,15:04:01.930072
0.331360,+0000024,-0000051,-0000019,+0000045,-0000097,+0004150,-0000744,+0000430,-0002314,15:04:01.930072
0.331693,-0000006,+0000008,+0000009,+0000061,-0000095,+0004145,-0000756,+0000420,-0002302,15:04:01.930072
0.332026,+0000010,-0000020,-0000016,+0000036,-0000082,+0004158,-0000756,+0000420,-0002302,15:04:01.930072
0.332359,+0000020,-0000037,+0000003,+0000029,-0000090,+0004145,-0000756,+0000420,-0002302,15:04:01.930072
0.332692,+0000019,-0000031,-0000024,+0000041,-0000089,+0004143,-0000732,+0000426,-0002319,15:04:01.930072
0.333025,+0000020,-0000055,-0000005,+0000021,-0000076,+0004153,-0000732,+0000426,-0002319,15:04:01.930072
0.333358,+0000010,-0000028,-0000016,+0000023,-0000081,+0004150,-0000732,+0000426,-0002319,15:04:01.930072
0.333691,-0000003,-0000007,+0000001,+0000030,-0000090,+0004165,-0000746,+0000410,-0002330,15:04:01.930072
0.334024,+0000010,-0000016,-0000013,+0000046,-0000084,+0004153,-0000746,+0000410,-0002330,15:04:01.930072
0.334357,+0000019,-0000022,+0000000,+0000048,-0000080,+0004155,-0000746,+0000410,-0002330,15:04:01.930072
0.334690,+0000014,-0000038,-0000010,+0000032,-0000075,+0004160,-0000726,+0000412,-0002326,15:04:01.930072
0.335023,+0000030,-0000021,-0000005,+0000035,-0000087,+0004143,-0000726,+0000412,-0002326,15:04:01.930072
0.335356,+0000020,-0000024,-0000008,+0000059,-0000069,+0004158,-0000726,+0000412,-0002326,15:04:01.930072
0.335689,-0000001,-0000005,-0000008,+0000033,-0000106,+0004142,-0000752,+0000426,-0002283,15:04:01.930072
0.336022,+0000010,-0000018,-0000011,+0000050,-0000088,+0004146,-0000752,+0000426,-0002283,15:04:01.930072
0.336355,+0000010,-0000016,+0000000,+0000058,-0000078,+0004167,-0000752,+0000426,-0002283,15:04:01.930072
0.336688,+0000036,-0000042,-0000007,+0000066,-0000097,+0004167,-0000750,+0000416,-0002314,15:04:01.930072
0.337021,+0000028,-0000032,-0000016,+0000063,-0000081,+0004131,-0000750,+0000416,-0002314,15:04:01.930072
0.337354,+0000013,-0000021,-0000010,+0000050,-0000088,+0004157,-0000750,+0000416,-0002314,15:04:01.930072
0.337687,+0000006,-0000016,-0000007,+0000048,-0000086,+0004151,-0000734,+0000404,-0002321,15:04:01.930072
0.338020,+0000014,-0000026,-0000019,+0000040,-0000077,+0004182,-0000734,+0000404,-0002321,15:04:01.930072
0.338353,+0000008,-0000029,-0000002,+0000038,-0000077,+0004157,-0000734,+0000404,-0002321,15:04:01.930072
0.338686,+0000025,-0000039,-0000017,+0000035,-0000078,+0004160,-0000746,+0000418,-0002309,15:04:01.930072
0.339019,+0000024,-0000042,-0000013,+0000036,-0000097,+0004149,-0000746,+0000418,-0002309,15:04:01.930072
0.339352,+0000000,-0000024,-0000006,+0000042,-0000067,+0004171,-0000746,+0000418,-0002309,15:04:01.930072
0.339685,+0000008,-0000015,-0000007,+0000040,-0000112,+0004166,-0000722,+0000410,-0002312,15:04:01.930072
0.340018,+0000006,-0000019,-0000019,+0000045,-0000101,+0004163,-0000722,+0000410,-0002312,15:04:01.930072
0.340351,+0000010,-0000023,+0000005,+0000016,-0000091,+0004155,-0000722,+0000410,-0002312,15:04:01.930072
0.340684,+0000027,-0000029,-0000018,+0000019,-0000072,+0004163,-0000730,+0000426,-0002306,15:04:01.930072
0.341017,+0000020,-0000034,-0000013,+0000032,-0000080,+0004149,-0000730,+0000426,-0002306,15:04:01.930072
0.341350,+0000017,-0000023,-0000008,+0000034,-0000104,+0004160,-0000730,+0000426,-0002306,15:04:01.930072
0.341683,+0000006,-0000013,-0000015,+0000036,-0000099,+0004160,-0000744,+0000412,-0002313,15:04:01.930072
0.342016,+0000003,-0000019,-0000007,+0000022,-0000090,+0004147,-0000744,+0000412,-0002313,15:04:01.930072
0.342349,+0000013,-0000022,-0000002,+0000034,-0000069,+0004148,-0000744,+0000412,-0002313,15:04:01.930072
0.342682,+0000017,-0000048,-0000010,+0000049,-0000069,+0004157,-0000720,+0000422,-0002315,15:04:01.973921
0.343017,+0000016,-0000029,-0000015,+0000047,-0000108,+0004161,-0000720,+0000422,-0002315,15:04:01.973921
0.343351,+0000017,-0000021,-0000011,+0000038,-0000076,+0004175,-0000720,+0000422,-0002315,15:04:01.973921
0.344058,+0000005,-0000034,-0000013,+0000060,-0000089,+0004147,-0000736,+0000408,-0002298,15:04:01.973921
0.344453,+0000024,-0000015,-0000007,+0000040,-0000091,+0004135,-0000736,+0000408,-0002298,15:04:01.973921
0.344706,+0000013,-0000029,-0000011,+0000040,-0000091,+0004150,-0000736,+0000408,-0002298,15:04:01.973921
0.345017,+0000009,-0000021,-0000011,+0000030,-0000084,+0004161,-0000724,+0000426,-0002312,15:04:01.973921
0.345350,+0000010,-0000028,+0000001,+0000050,-0000088,+0004165,-0000724,+0000426,-0002312,15:04:01.973921
0.345681,+0000027,-0000029,-0000011,+0000040,-0000085,+0004163,-0000724,+0000426,-0002312,15:04:01.973921
0.346012,+0000008,-0000020,-0000005,+0000019,-0000079,+0004120,-0000734,+0000424,-0002326,15:04:01.973921
0.346348,+0000028,-0000043,-0000007,+0000039,-0000081,+0004140,-0000734,+0000424,-0002326,15:04:01.973921
0.346678,+0000032,-0000034,-0000013,+0000035,-0000101,+0004154,-0000734,+0000424,-0002326,15:04:01.973921
0.347011,+0000011,-0000016,-0000003,+0000022,-0000091,+0004161,-0000734,+0000426,-0002290,15:04:01.973921
0.347344,+0000013,-0000007,-0000011,+0000022,-0000090,+0004163,-0000734,+0000426,-0002290,15:04:01.973921
0.347677,-0000001,-0000016,-0000008,+0000027,-0000078,+0004160,-0000734,+0000426,-0002290,15:04:01.973921
0.348010,+0000019,-0000028,-0000013,+0000042,-0000089,+0004159,-0000742,+0000418,-0002309,15:04:01.973921
0.348343,+0000024,-0000029,-0000011,+0000050,-0000093,+0004169,-0000742,+0000418,-0002309,15:04:01.973921
0.348676,+0000020,-0000026,-0000010,+0000038,-0000087,+0004157,-0000742,+0000418,-0002309,15:04:01.973921
0.349009,+0000014,-0000013,-0000010,+0000047,-0000086,+0004162,-0000738,+0000426,-0002312,15:04:01.973921
0.349342,+0000008,-0000010,+0000004,+0000039,-0000080,+0004172,-0000738,+0000426,-0002312,15:04:01.973921
0.349675,+0000003,-0000027,-0000013,+0000036,-0000110,+0004181,-0000738,+0000426,-0002312,15:04:01.973921
0.350008,+0000005,-0000017,-0000007,+0000040,-0000078,+0004150,-0000732,+0000424,-0002315,15:04:01.973921
0.350341,+0000020,-0000041,-0000014,+0000046,-0000092,+0004158,-0000732,+0000424,-0002315,15:04:01.973921
0.350674,+0000014,-0000027,-0000005,+0000032,-0000085,+0004160,-0000732,+0000424,-0002315,15:04:01.973921
0.351007,+0000010,-0000027,+0000001,+0000053,-0000106,+0004155,-0000734,+0000432,-0002299,15:04:01.973921
0.351340,+0000005,-0000015,-0000012,+0000051,-0000088,+0004156,-0000734,+0000432,-0002299,15:04:01.973921
0.351673,+0000005,-0000018,-0000014,+0000039,-0000117,+0004168,-0000734,+0000432,-0002299,15:04:01.973921
0.352006,-0000002,-0000021,-0000011,+0000043,-0000094,+0004165,-0000732,+0000416,-0002293,15:04:01.973921
0.352339,+0000014,-0000042,-0000011,+0000036,-0000098,+0004153,-0000732,+0000416,-0002293,15:04:01.973921
0.352672,+0000011,-0000031,-0000005,+0000030,-0000093,+0004133,-0000732,+0000416,-0002293,15:04:01.973921
0.353005,+0000032,-0000018,-0000019,+0000044,-0000090,+0004144,-0000740,+0000422,-0002311,15:04:01.973921
0.353338,-0000003,-0000013,+0000001,+0000035,-0000088,+0004161,-0000740,+0000422,-0002311,15:04:01.973921
0.353671,+0000011,-0000015,-0000002,+0000033,-0000095,+0004158,-0000740,+0000422,-0002311,15:04:01.973921
0.354004,+0000003,-0000022,-0000011,+0000025,-0000083,+0004156,-0000734,+0000426,-0002305,15:04:01.973921
0.354338,+0000024,-0000030,-0000002,+0000026,-0000080,+0004149,-0000734,+0000426,-0002305,15:04:01.973921
0.354796,+0000016,-0000011,-0000002,+0000072,-0000062,+0004156,-0000734,+0000426,-0002305,15:04:01.973921
0.355008,+0000016,-0000011,-0000002,+0000072,-0000062,+0004135,-0000748,+0000422,-0002299,15:04:01.973921
0.355340,+0000000,+0000000,-0000007,+0000048,-0000067,+0004167,-0000748,+0000422,-0002299,15:04:01.973921
0.355671,+0000013,-0000029,-0000008,+0000022,-0000075,+0004162,-0000748,+0000422,-0002299,15:04:01.973921
0.356002,+0000029,-0000043,-0000010,+0000034,-0000083,+0004145,-0000736,+0000432,-0002304,15:04:01.973921
0.356335,+0000025,-0000036,-0000014,+0000041,-0000088,+0004154,-0000736,+0000432,-0002304,15:04:01.973921
0.356669,+0000017,-0000032,-0000012,+0000068,-0000089,+0004141,-0000736,+0000432,-0002304,15:04:01.973921
0.357003,+0000019,-0000021,+0000000,+0000052,-0000093,+0004151,-0000742,+0000440,-0002305,15:04:01.973921
0.357335,-0000008,-0000002,-0000007,+0000034,-0000098,+0004162,-0000742,+0000440,-0002305,15:04:01.973921
0.357669,+0000021,-0000026,-0000002,+0000046,-0000095,+0004148,-0000742,+0000440,-0002305,15:04:01.973921
0.358000,+0000016,-0000027,-0000007,+0000030,-0000067,+0004162,-0000744,+0000424,-0002336,15:04:01.973921
0.358335,+0000022,-0000028,-0000016,+0000032,-0000067,+0004157,-0000744,+0000424,-0002336,15:04:01.973921
0.358666,+0000009,-0000032,+0000000,+0000045,-0000087,+0004151,-0000744,+0000424,-0002336,15:04:01.973921
0.359006,+0000013,+0000000,-0000011,+0000038,-0000076,+0004155,-0000732,+0000442,-0002320,15:04:01.973921
0.359332,+0000033,-0000024,-0000008,+0000035,-0000115,+0004162,-0000732,+0000442,-0002320,15:04:01.973921
0.359665,+0000027,-0000042,-0000015,+0000048,-0000086,+0004146,-0000732,+0000442,-0002320,15:04:01.973921
0.359998,+0000019,-0000023,-0000003,+0000047,-0000092,+0004148,-0000728,+0000420,-0002283,15:04:01.973921
0.360331,+0000027,-0000040,-0000005,+0000050,-0000099,+0004150,-0000728,+0000420,-0002283,15:04:01.973921
0.360664,+0000019,-0000004,-0000008,+0000021,-0000090,+0004160,-0000728,+0000420,-0002283,15:04:01.973921
0.360997,+0000014,-0000021,-0000016,+0000046,-0000100,+0004138,-0000736,+0000418,-0002332,15:04:01.973921
0.361330,+0000003,-0000010,-0000002,+0000041,-0000114,+0004122,-0000736,+0000418,-0002332,15:04:01.973921
0.361663,+0000014,-0000018,-0000015,+0000039,-0000086,+0004128,-0000736,+0000418,-0002332,15:04:01.973921
0.361996,+0000036,-0000034,-0000005,+0000042,-0000075,+0004154,-0000734,+0000432,-0002311,15:04:01.973921
0.362329,+0000013,-0000026,-0000019,+0000065,-0000105,+0004146,-0000734,+0000432,-0002311,15:04:01.973921
0.362662,-0000001,-0000013,+0000006,+0000035,-0000110,+0004155,-0000734,+0000432,-0002311,15:04:01.973921
0.362995,+0000022,-0000010,-0000015,+0000042,-0000096,+0004136,-0000726,+0000430,-0002327,15:04:01.973921
0.363328,+0000010,-0000028,-0000005,+0000051,-0000094,+0004137,-0000726,+0000430,-0002327,15:04:01.973921
0.363661,+0000009,-0000013,-0000007,+0000040,-0000063,+0004128,-0000726,+0000430,-0002327,15:04:01.973921
0.363994,+0000028,-0000034,-0000008,+0000021,-0000093,+0004143,-0000722,+0000424,-0002325,15:04:01.973921
0.364327,+0000011,-0000029,+0000003,+0000029,-0000095,+0004149,-0000722,+0000424,-0002325,15:04:01.973921
0.364660,+0000011,-0000021,-0000025,+0000023,-0000083,+0004136,-0000722,+0000424,-0002325,15:04:01.973921
0.364993,+0000009,+0000000,-0000005,+0000018,-0000105,+0004150,-0000722,+0000408,-0002325,15:04:01.973921
0.365326,+0000008,-0000012,-0000002,+0000059,-0000087,+0004143,-0000722,+0000408,-0002325,15:04:01.973921
0.365659,+0000018,-0000019,-0000007,+0000035,-0000068,+0004151,-0000722,+0000408,-0002325,15:04:01.973921
0.365992,+0000033,-0000042,-0000005,+0000041,-0000078,+0004148,-0000742,+0000446,-0002288,15:04:01.973921
0.366325,+0000020,-0000022,-0000013,+0000046,-0000086,+0004131,-0000742,+0000446,-0002288,15:04:01.973921
0.366658,+0000014,-0000032,-0000010,+0000035,-0000074,+0004148,-0000742,+0000446,-0002288,15:04:01.973921
0.366991,+0000016,-0000010,-0000005,+0000054,-0000098,+0004167,-0000716,+0000430,-0002298,15:04:01.973921
0.367325,+0000000,-0000021,-0000004,+0000029,-0000087,+0004162,-0000716,+0000430,-0002298,15:04:01.973921
0.367657,+0000019,-0000023,-0000007,+0000023,-0000094,+0004161,-0000716,+0000430,-0002298,15:04:01.973921
0.367990,+0000016,-0000048,-0000003,+0000039,-0000083,+0004146,-0000746,+0000426,-0002325,15:04:01.973921
0.368325,+0000023,-0000008,-0000011,+0000032,-0000068,+0004142,-0000746,+0000426,-0002325,15:04:01.973921
0.368656,+0000017,-0000042,-0000016,+0000049,-0000095,+0004157,-0000746,+0000426,-0002325,15:04:01.973921
0.368989,+0000000,-0000005,-0000005,+0000038,-0000108,+0004148,-0000716,+0000434,-0002283,15:04:01.973921
0.369325,+0000000,-0000023,-0000005,+0000032,-0000084,+0004158,-0000716,+0000434,-0002283,15:04:01.973921
0.369655,+0000016,-0000028,-0000002,+0000027,-0000075,+0004150,-0000716,+0000434,-0002283,15:04:01.973921
0.369988,+0000022,-0000035,-0000011,+0000035,-0000080,+0004154,-0000742,+0000428,-0002299,15:04:01.973921
0.370326,+0000019,-0000031,-0000014,+0000027,-0000092,+0004161,-0000742,+0000428,-0002299,15:04:01.973921
0.370654,+0000000,-0000007,-0000003,+0000038,-0000093,+0004168,-0000742,+0000428,-0002299,15:04:01.973921
0.370987,+0000003,-0000015,-0000005,+0000022,-0000080,+0004144,-0000736,+0000426,-0002316,15:04:01.973921
0.371325,+0000008,-0000002,-0000004,+0000050,-0000105,+0004153,-0000736,+0000426,-0002316,15:04:01.973921
0.371653,+0000014,-0000034,-0000007,+0000040,-0000100,+0004153,-0000736,+0000426,-0002316,15:04:01.973921
0.371986,+0000030,-0000046,-0000015,+0000040,-0000098,+0004154,-0000726,+0000440,-0002301,15:04:01.973921
0.372324,+0000009,-0000022,+0000004,+0000061,-0000107,+0004155,-0000726,+0000440,-0002301,15:04:01.973921
0.372652,+0000003,-0000015,+0000001,+0000046,-0000100,+0004157,-0000726,+0000440,-0002301,15:04:01.973921
0.372985,+0000002,-0000010,+0000000,+0000033,-0000092,+0004162,-0000732,+0000428,-0002344,15:04:01.973921
0.373323,+0000003,-0000026,-0000011,+0000041,-0000081,+0004164,-0000732,+0000428,-0002344,15:04:01.973921
0.373651,+0000019,-0000034,-0000005,+0000039,-0000080,+0004165,-0000732,+0000428,-0002344,15:04:01.973921
0.373984,+0000032,-0000035,-0000007,+0000032,-0000085,+0004152,-0000728,+0000432,-0002324,15:04:01.973921
0.374322,+0000013,-0000016,-0000014,+0000052,-0000087,+0004139,-0000728,+0000432,-0002324,15:04:01.973921
0.374650,+0000000,-0000022,-0000002,+0000039,-0000077,+0004142,-0000728,+0000432,-0002324,15:04:01.973921
0.374983,+0000005,-0000016,-0000001,+0000059,-0000078,+0004139,-0000726,+0000444,-0002306,15:04:01.973921
0.375321,+0000013,-0000029,-0000008,+0000044,-0000075,+0004155,-0000726,+0000444,-0002306,15:04:01.973921
0.375649,+0000022,-0000026,-0000011,+0000054,-0000092,+0004156,-0000726,+0000444,-0002306,15:04:01.973921
0.375982,+0000021,-0000023,-0000008,+0000036,-0000106,+0004148,-0000734,+0000420,-0002331,15:04:01.973921
