===BEGIN_METADATA===
"This CSV contains gyroscope, accelerometer, and magnetometer data synced with the test named below."
Test Name: 2026-07-07_150514_01,yyyy-mm-dd_hhmmss_{probe#/nano_id}
Calibrations: (not implemented yet)
===END_METADATA===
===BEGIN_DATA===
Time (sec),Gyro X,Gyro Y,Gyro Z,Accel X,Accel Y,Accel Z,Mag X,Mag Y,Mag Z,Processed_Time
0.000204,+0000016,+0000005,+0000003,+0000058,-0000088,+0004151,-0000800,+0000520,-0002362,15:05:18.312816
0.000534,+0000004,-0000010,-0000008,+0000077,-0000091,+0004149,-0000800,+0000520,-0002362,15:05:18.312816
0.000867,+0000008,-0000013,+0000000,+0000060,-0000073,+0004145,-0000800,+0000520,-0002362,15:05:18.312816
0.001200,+0000011,-0000047,-0000012,+0000074,-0000069,+0004154,-0000790,+0000524,-0002331,15:05:18.312816
0.001533,+0000027,-0000045,-0000019,+0000062,-0000080,+0004151,-0000790,+0000524,-0002331,15:05:18.312816
0.001866,+0000000,-0000028,+0000003,+0000061,-0000115,+0004185,-0000790,+0000524,-0002331,15:05:18.312816
0.002199,-0000017,+0000004,+0000003,+0000072,-0000100,+0004158,-0000798,+0000548,-0002345,15:05:18.312816
0.002532,+0000008,-0000021,-0000018,+0000062,-0000102,+0004148,-0000798,+0000548,-0002345,15:05:18.312816
0.002865,+0000014,-0000021,+0000004,+0000041,-0000088,+0004151,-0000798,+0000548,-0002345,15:05:18.312816
0.003198,+0000019,-0000035,-0000016,+0000074,-0000085,+0004152,-0000802,+0000540,-0002342,15:05:18.312816
0.003531,+0000020,-0000042,-0000005,+0000080,-0000074,+0004164,-0000802,+0000540,-0002342,15:05:18.312816
0.003864,+0000021,-0000023,+0000006,+0000064,-0000091,+0004149,-0000802,+0000540,-0002342,15:05:18.312816
0.004197,+0000011,-0000018,-0000019,+0000084,-0000075,+0004155,-0000806,+0000532,-0002337,15:05:18.312816
0.004530,+0000002,-0000009,-0000005,+0000055,-0000095,+0004162,-0000806,+0000532,-0002337,15:05:18.312816
0.004863,+0000008,-0000018,-0000010,+0000045,-0000098,+0004154,-0000806,+0000532,-0002337,15:05:18.312816
0.005196,+0000022,-0000033,-0000002,+0000060,-0000069,+0004136,-0000810,+0000516,-0002362,15:05:18.312816
0.005529,+0000019,-0000012,-0000004,+0000066,-0000092,+0004151,-0000810,+0000516,-0002362,15:05:18.312816
0.005862,+0000010,-0000037,-0000016,+0000067,-0000083,+0004154,-0000810,+0000516,-0002362,15:05:18.312816
0.006195,+0000010,-0000005,-0000008,+0000068,-0000073,+0004163,-0000802,+0000520,-0002354,15:05:18.312816
0.006528,-0000005,-0000008,+0000005,+0000073,-0000064,+0004179,-0000802,+0000520,-0002354,15:05:18.312816
0.006861,+0000023,-0000026,-0000021,+0000078,-0000101,+0004144,-0000802,+0000520,-0002354,15:05:18.312816
0.007194,+0000011,-0000032,-0000012,+0000088,-0000093,+0004151,-0000796,+0000512,-0002350,15:05:18.312816
0.007527,+0000003,-0000021,+0000000,+0000050,-0000087,+0004150,-0000796,+0000512,-0002350,15:05:18.312816
0.007860,+0000010,-0000021,-0000007,+0000054,-0000072,+0004156,-0000796,+0000512,-0002350,15:05:18.312816
0.008193,+0000022,-0000021,-0000016,+0000066,-0000080,+0004153,-0000800,+0000524,-0002341,15:05:18.312816
0.008526,-0000006,-0000005,-0000010,+0000065,-0000095,+0004153,-0000800,+0000524,-0002341,15:05:18.312816
0.008859,+0000019,-0000027,-0000008,+0000058,-0000087,+0004146,-0000800,+0000524,-0002341,15:05:18.312816
0.009192,+0000021,-0000036,-0000013,+0000062,-0000099,+0004156,-0000810,+0000528,-0002319,15:05:18.312816
0.009525,+0000027,-0000032,-0000003,+0000059,-0000097,+0004157,-0000810,+0000528,-0002319,15:05:18.312816
0.009858,+0000025,-0000015,-0000016,+0000081,-0000095,+0004168,-0000810,+0000528,-0002319,15:05:18.315403
0.010192,+0000009,-0000026,-0000010,+0000060,-0000086,+0004150,-0000796,+0000520,-0002357,15:05:18.315403
0.010530,-0000005,-0000002,-0000007,+0000068,-0000068,+0004170,-0000796,+0000520,-0002357,15:05:18.315403
0.011140,+0000024,-0000037,-0000021,+0000065,-0000076,+0004154,-0000796,+0000520,-0002357,15:05:18.316825
0.011360,+0000024,-0000037,-0000021,+0000063,-0000078,+0004162,-0000812,+0000514,-0002363,15:05:18.316825
0.011568,+0000005,-0000013,+0000001,+0000063,-0000078,+0004162,-0000812,+0000514,-0002363,15:05:18.316825
0.011859,+0000009,-0000014,-0000010,+0000076,-0000087,+0004170,-0000812,+0000514,-0002363,15:05:18.316825
0.012191,+0000029,-0000027,-0000004,+0000069,-0000098,+0004174,-0000816,+0000526,-0002362,15:05:18.316825
0.012524,+0000005,-0000024,-0000005,+0000045,-0000099,+0004173,-0000816,+0000526,-0002362,15:05:18.316825
0.012855,+0000022,-0000032,-0000015,+0000057,-0000082,+0004154,-0000816,+0000526,-0002362,15:05:18.316825
0.013190,+0000011,-0000030,-0000010,+0000052,-0000100,+0004150,-0000796,+0000524,-0002351,15:05:18.316825
0.013522,+0000023,-0000046,-0000012,+0000073,-0000096,+0004162,-0000796,+0000524,-0002351,15:05:18.316825
0.013854,+0000012,-0000005,-0000007,+0000065,-0000123,+0004148,-0000796,+0000524,-0002351,15:05:18.316825
0.014187,+0000013,-0000019,-0000002,+0000045,-0000093,+0004157,-0000808,+0000536,-0002367,15:05:18.316825
0.014520,-0000005,-0000003,+0000000,+0000068,-0000101,+0004134,-0000808,+0000536,-0002367,15:05:18.316825
0.014853,+0000020,-0000030,-0000010,+0000054,-0000087,+0004148,-0000808,+0000536,-0002367,15:05:18.316825
0.015186,+0000020,-0000036,-0000013,+0000040,-0000080,+0004176,-0000802,+0000526,-0002360,15:05:18.316825
0.015519,+0000016,-0000047,-0000013,+0000052,-0000066,+0004150,-0000802,+0000526,-0002360,15:05:18.316825
0.015853,+0000002,-0000012,-0000007,+0000054,-0000090,+0004146,-0000802,+0000526,-0002360,15:05:18.316825
0.016185,+0000000,-0000007,-0000002,+0000065,-0000089,+0004164,-0000798,+0000532,-0002365,15:05:18.316825
0.016519,+0000024,-0000036,-0000008,+0000061,-0000082,+0004148,-0000798,+0000532,-0002365,15:05:18.316825
0.016851,+0000019,-0000031,+0000001,+0000056,-0000100,+0004157,-0000798,+0000532,-0002365,15:05:18.316825
0.017184,+0000019,-0000043,-0000016,+0000063,-0000086,+0004157,-0000824,+0000530,-0002339,15:05:18.316825
0.017517,+0000021,-0000005,-0000003,+0000045,-0000088,+0004160,-0000824,+0000530,-0002339,15:05:18.316825
0.017850,+0000009,-0000023,-0000016,+0000052,-0000081,+0004156,-0000824,+0000530,-0002339,15:05:18.316825
0.018183,-0000014,+0000000,+0000006,+0000061,-0000105,+0004156,-0000812,+0000524,-0002340,15:05:18.316825
0.018516,+0000014,-0000037,-0000011,+0000057,-0000084,+0004121,-0000812,+0000524,-0002340,15:05:18.316825
0.018849,+0000022,-0000036,-0000010,+0000067,-0000085,+0004153,-0000812,+0000524,-0002340,15:05:18.316825
0.019182,+0000013,-0000024,-0000007,+0000055,-0000083,+0004138,-0000804,+0000522,-0002336,15:05:18.316825
0.019515,+0000003,-0000018,-0000007,+0000072,-0000086,+0004162,-0000804,+0000522,-0002336,15:05:18.316825
0.019848,+0000014,-0000027,-0000011,+0000059,-0000084,+0004138,-0000804,+0000522,-0002336,15:05:18.316825
0.020181,+0000003,-0000005,-0000005,+0000065,-0000089,+0004150,-0000806,+0000528,-0002319,15:05:18.316825
0.020514,+0000003,-0000032,-0000016,+0000070,-0000080,+0004150,-0000806,+0000528,-0002319,15:05:18.316825
0.020847,+0000027,-0000030,-0000007,+0000044,-0000084,+0004145,-0000806,+0000528,-0002319,15:05:18.316825
0.021180,+0000006,-0000027,-0000013,+0000071,-0000106,+0004155,-0000804,+0000530,-0002319,15:05:18.316825
0.021513,+0000022,-0000018,-0000015,+0000078,-0000093,+0004156,-0000804,+0000530,-0002319,15:05:18.316825
0.021846,+0000008,-0000012,-0000005,+0000066,-0000097,+0004162,-0000804,+0000530,-0002319,15:05:18.316825
0.022179,+0000006,-0000011,-0000006,+0000084,-0000085,+0004150,-0000804,+0000524,-0002344,15:05:18.316825
0.022512,+0000017,-0000029,+0000005,+0000066,-0000089,+0004150,-0000804,+0000524,-0002344,15:05:18.316825
0.022845,+0000025,-0000035,-0000019,+0000065,-0000093,+0004139,-0000804,+0000524,-0002344,15:05:18.316825
0.023178,+0000011,-0000037,-0000010,+0000051,-0000096,+0004157,-0000804,+0000524,-0002333,15:05:18.316825
0.023511,+0000008,-0000016,-0000011,+0000070,-0000090,+0004148,-0000804,+0000524,-0002333,15:05:18.316825
0.023844,+0000005,-0000013,-0000014,+0000061,-0000080,+0004139,-0000804,+0000524,-0002333,15:05:18.316825
0.024177,+0000000,+0000003,+0000011,+0000073,-0000092,+0004147,-0000802,+0000528,-0002331,15:05:18.316825
0.024510,+0000003,-0000008,-0000002,+0000071,-0000075,+0004145,-0000802,+0000528,-0002331,15:05:18.316825
0.024843,+0000011,-0000034,-0000010,+0000042,-0000077,+0004148,-0000802,+0000528,-0002331,15:05:18.316825
0.025176,+0000014,-0000023,-0000017,+0000048,-0000105,+0004165,-0000812,+0000520,-0002332,15:05:18.316825
0.025509,+0000013,-0000029,+0000000,+0000077,-0000078,+0004150,-0000812,+0000520,-0002332,15:05:18.316825
0.025842,+0000008,-0000007,-0000010,+0000052,-0000089,+0004151,-0000812,+0000520,-0002332,15:05:18.316825
0.026175,+0000010,-0000015,+0000000,+0000064,-0000096,+0004160,-0000808,+0000520,-0002314,15:05:18.316825
0.026508,+0000008,-0000024,-0000010,+0000054,-0000076,+0004137,-0000808,+0000520,-0002314,15:05:18.316825
0.026841,+0000030,-0000040,-0000013,+0000071,-0000084,+0004121,-0000808,+0000520,-0002314,15:05:18.316825
0.027174,+0000030,-0000029,-0000011,+0000051,-0000097,+0004153,-0000816,+0000524,-0002328,15:05:18.316825
0.027507,+0000010,-0000021,-0000012,+0000057,-0000093,+0004143,-0000816,+0000524,-0002328,15:05:18.316825
0.027840,-0000005,-0000008,+0000001,+0000062,-0000092,+0004156,-0000816,+0000524,-0002328,15:05:18.316825
0.028173,+0000016,-0000020,-0000014,+0000064,-0000087,+0004151,-0000812,+0000534,-0002346,15:05:18.316825
0.028506,+0000010,-0000036,-0000002,+0000058,-0000091,+0004154,-0000812,+0000534,-0002346,15:05:18.316825
0.028839,+0000014,-0000044,-0000014,+0000056,-0000090,+0004134,-0000812,+0000534,-0002346,15:05:18.316825
0.029172,+0000016,-0000019,-0000014,+0000071,-0000093,+0004151,-0000806,+0000524,-0002338,15:05:18.316825
0.029505,-0000011,-0000010,-0000016,+0000078,-0000088,+0004166,-0000806,+0000524,-0002338,15:05:18.316825
0.029838,-0000001,-0000005,+0000003,+0000072,-0000094,+0004161,-0000806,+0000524,-0002338,15:05:18.316825
0.030171,+0000013,-0000021,-0000005,+0000060,-0000084,+0004178,-0000810,+0000520,-0002377,15:05:18.316825
0.030504,+0000012,-0000040,-0000014,+0000071,-0000090,+0004157,-0000810,+0000520,-0002377,15:05:18.316825
0.030837,+0000025,-0000043,-0000015,+0000041,-0000080,+0004158,-0000810,+0000520,-0002377,15:05:18.316825
0.031170,+0000016,-0000018,-0000018,+0000064,-0000085,+0004157,-0000802,+0000518,-0002365,15:05:18.316825
0.031503,+0000002,-0000005,-0000002,+0000069,-0000092,+0004158,-0000802,+0000518,-0002365,15:05:18.316825
0.031836,+0000014,-0000024,-0000007,+0000088,-0000127,+0004138,-0000802,+0000518,-0002365,15:05:18.316825
0.032169,+0000010,-0000015,-0000008,+0000058,-0000101,+0004160,-0000810,+0000526,-0002340,15:05:18.316825
0.032502,+0000019,-0000032,-0000002,+0000064,-0000100,+0004161,-0000810,+0000526,-0002340,15:05:18.316825
0.032835,+0000028,-0000031,-0000016,+0000071,-0000076,+0004135,-0000810,+0000526,-0002340,15:05:18.316825
0.033194,+0000008,-0000007,-0000002,+0000066,-0000073,+0004151,-0000814,+0000518,-0002331,15:05:18.316825
0.033501,+0000002,-0000018,-0000007,+0000058,-0000085,+0004140,-0000814,+0000518,-0002331,15:05:18.316825
0.033834,+0000027,-0000035,-0000019,+0000059,-0000093,+0004140,-0000814,+0000518,-0002331,15:05:18.316825
0.034168,+0000018,-0000027,-0000005,+0000062,-0000093,+0004159,-0000812,+0000526,-0002336,15:05:18.316825
0.034500,+0000013,-0000013,-0000010,+0000060,-0000098,+0004160,-0000812,+0000526,-0002336,15:05:18.316825
0.034833,+0000021,-0000023,-0000002,+0000080,-0000083,+0004138,-0000812,+0000526,-0002336,15:05:18.316825
0.035166,+0000019,-0000028,-0000010,+0000077,-0000084,+0004144,-0000820,+0000516,-0002344,15:05:18.316825
0.035499,+0000002,-0000013,-0000019,+0000075,-0000102,+0004140,-0000820,+0000516,-0002344,15:05:18.316825
0.035832,+0000009,-0000014,-0000002,+0000052,-0000090,+0004134,-0000820,+0000516,-0002344,15:05:18.316825
0.036165,+0000011,-0000011,-0000013,+0000065,-0000071,+0004148,-0000792,+0000528,-0002326,15:05:18.316825
0.036498,+0000006,-0000021,-0000005,+0000077,-0000093,+0004148,-0000792,+0000528,-0002326,15:05:18.316825
0.036831,+0000030,-0000037,-0000013,+0000061,-0000084,+0004180,-0000792,+0000528,-0002326,15:05:18.316825
0.037164,+0000007,-0000022,-0000005,+0000050,-0000092,+0004174,-0000800,+0000526,-0002333,15:05:18.316825
0.037497,+0000006,-0000022,-0000008,+0000058,-0000085,+0004160,-0000800,+0000526,-0002333,15:05:18.316825
0.037830,+0000002,-0000007,-0000007,+0000057,-0000066,+0004148,-0000800,+0000526,-0002333,15:05:18.316825
0.038163,+0000011,-0000019,-0000005,+0000052,-0000102,+0004171,-0000788,+0000528,-0002351,15:05:18.316825
0.038496,+0000014,-0000024,-0000018,+0000054,-0000090,+0004169,-0000788,+0000528,-0002351,15:05:18.318832
0.038829,+0000025,-0000038,-0000001,+0000065,-0000090,+0004158,-0000788,+0000528,-0002351,15:05:18.318832
0.039162,+0000011,-0000027,-0000018,+0000062,-0000088,+0004152,-0000790,+0000520,-0002328,15:05:18.318832
0.039495,+0000008,-0000004,+0000004,+0000078,-0000099,+0004126,-0000790,+0000520,-0002328,15:05:18.318832
0.039828,+0000000,-0000018,-0000002,+0000050,-0000077,+0004153,-0000790,+0000520,-0002328,15:05:18.318832
0.040161,+0000019,-0000039,-0000007,+0000062,-0000075,+0004158,-0000818,+0000520,-0002365,15:05:18.318832
0.040494,+0000027,-0000030,+0000003,+0000058,-0000071,+0004159,-0000818,+0000520,-0002365,15:05:18.318832
0.040827,+0000014,-0000027,-0000007,+0000063,-0000096,+0004165,-0000818,+0000520,-0002365,15:05:18.318832
0.041160,+0000008,-0000038,-0000016,+0000067,-0000080,+0004178,-0000796,+0000530,-0002343,15:05:18.318832
0.041494,-0000003,-0000016,-0000010,+0000071,-0000086,+0004166,-0000796,+0000530,-0002343,15:05:18.318832
0.041826,+0000021,-0000018,-0000005,+0000053,-0000076,+0004161,-0000796,+0000530,-0002343,15:05:18.318832
0.042159,+0000024,-0000035,-0000010,+0000075,-0000081,+0004168,-0000810,+0000524,-0002346,15:05:18.318832
0.042492,+0000030,-0000034,-0000008,+0000075,-0000098,+0004179,-0000810,+0000524,-0002346,15:05:18.365252
0.042826,+0000022,-0000023,-0000013,+0000071,-0000098,+0004174,-0000810,+0000524,-0002346,15:05:18.365252
0.043160,+0000003,-0000013,-0000010,+0000079,-0000090,+0004164,-0000816,+0000544,-0002334,15:05:18.365252
0.043494,+0000007,-0000026,+0000009,+0000066,-0000086,+0004160,-0000816,+0000544,-0002334,15:05:18.365252
0.043964,+0000022,-0000042,-0000002,+0000053,-0000078,+0004156,-0000816,+0000544,-0002334,15:05:18.365252
0.044322,+0000006,+0000000,-0000010,+0000074,-0000092,+0004162,-0000812,+0000524,-0002358,15:05:18.365252
0.044562,+0000010,-0000011,-0000013,+0000061,-0000087,+0004163,-0000812,+0000524,-0002358,15:05:18.365252
0.044827,+0000025,-0000040,-0000008,+0000069,-0000114,+0004161,-0000812,+0000524,-0002358,15:05:18.365252
0.045164,+0000010,-0000022,-0000006,+0000050,-0000096,+0004148,-0000812,+0000524,-0002358,15:05:18.365252
0.045489,+0000014,-0000023,-0000010,+0000046,-0000088,+0004140,-0000812,+0000524,-0002358,15:05:18.365252
0.045822,+0000010,-0000022,-0000008,+0000063,-0000103,+0004154,-0000812,+0000524,-0002358,15:05:18.365252
0.046158,+0000022,-0000034,-0000010,+0000070,-0000080,+0004148,-0000806,+0000516,-0002358,15:05:18.365252
0.046494,+0000006,-0000011,+0000006,+0000080,-0000081,+0004150,-0000806,+0000516,-0002358,15:05:18.365252
0.046822,+0000003,-0000016,-0000010,+0000077,-0000090,+0004155,-0000806,+0000516,-0002358,15:05:18.365252
0.047156,+0000008,-0000018,-0000002,+0000080,-0000087,+0004143,-0000796,+0000518,-0002330,15:05:18.365252
0.047487,+0000019,-0000023,-0000016,+0000061,-0000079,+0004166,-0000796,+0000518,-0002330,15:05:18.365252
0.047820,+0000022,-0000037,+0000000,+0000068,-0000070,+0004172,-0000796,+0000518,-0002330,15:05:18.365252
0.048155,+0000005,-0000019,-0000015,+0000063,-0000097,+0004139,-0000814,+0000520,-0002352,15:05:18.365252
0.048487,+0000011,-0000017,-0000005,+0000053,-0000101,+0004145,-0000814,+0000520,-0002352,15:05:18.365252
0.048819,+0000006,-0000019,-0000003,+0000062,-0000092,+0004140,-0000814,+0000520,-0002352,15:05:18.365252
0.049152,+0000008,-0000020,-0000006,+0000058,-0000094,+0004150,-0000834,+0000520,-0002363,15:05:18.365252
0.049485,+0000008,-0000018,-0000010,+0000067,-0000095,+0004151,-0000834,+0000520,-0002363,15:05:18.365252
0.049819,+0000016,-0000024,+0000001,+0000063,-0000082,+0004171,-0000834,+0000520,-0002363,15:05:18.365252
0.050152,+0000036,-0000029,-0000016,+0000073,-0000082,+0004158,-0000808,+0000524,-0002335,15:05:18.365252
0.050484,-0000002,-0000023,-0000003,+0000063,-0000081,+0004135,-0000808,+0000524,-0002335,15:05:18.365252
0.050817,+0000019,-0000034,-0000016,+0000072,-0000095,+0004157,-0000808,+0000524,-0002335,15:05:18.365252
0.051150,+0000017,-0000015,-0000004,+0000052,-0000079,+0004156,-0000798,+0000520,-0002358,15:05:18.365252
0.051483,-0000012,-0000008,-0000005,+0000080,-0000075,+0004147,-0000798,+0000520,-0002358,15:05:18.365252
0.051816,+0000013,-0000020,-0000018,+0000056,-0000094,+0004138,-0000798,+0000520,-0002358,15:05:18.365252
0.052149,+0000025,-0000037,+0000000,+0000076,-0000089,+0004151,-0000806,+0000522,-0002352,15:05:18.365252
0.052482,+0000003,-0000023,-0000013,+0000073,-0000090,+0004153,-0000806,+0000522,-0002352,15:05:18.365252
0.052815,+0000019,-0000021,-0000013,+0000078,-0000076,+0004152,-0000806,+0000522,-0002352,15:05:18.365252
0.053148,+0000009,-0000010,+0000000,+0000061,-0000080,+0004142,-0000792,+0000512,-0002317,15:05:18.365252
0.053481,+0000005,-0000007,+0000005,+0000048,-0000076,+0004166,-0000792,+0000512,-0002317,15:05:18.365252
0.053814,+0000006,-0000027,-0000008,+0000054,-0000082,+0004138,-0000792,+0000512,-0002317,15:05:18.365252
0.054147,+0000030,-0000042,-0000010,+0000079,-0000088,+0004147,-0000814,+0000522,-0002332,15:05:18.365252
0.054480,+0000013,-0000015,-0000010,+0000063,-0000084,+0004123,-0000814,+0000522,-0002332,15:05:18.365252
0.054813,+0000021,-0000035,-0000007,+0000036,-0000087,+0004144,-0000814,+0000522,-0002332,15:05:18.366268
0.055146,+0000002,-0000010,-0000013,+0000067,-0000082,+0004163,-0000810,+0000512,-0002343,15:05:18.366268
0.055479,+0000008,-0000010,-0000002,+0000055,-0000081,+0004150,-0000810,+0000512,-0002343,15:05:18.366268
0.055812,+0000013,-0000040,-0000011,+0000076,-0000097,+0004147,-0000810,+0000512,-0002343,15:05:18.366268
0.056145,+0000030,-0000030,-0000003,+0000074,-0000084,+0004138,-0000802,+0000500,-0002342,15:05:18.366268
0.056478,+0000018,-0000039,-0000015,+0000057,-0000114,+0004150,-0000802,+0000500,-0002342,15:05:18.366268
0.056811,+0000003,-0000016,-0000002,+0000069,-0000083,+0004154,-0000802,+0000500,-0002342,15:05:18.366268
0.057144,+0000005,-0000002,-0000010,+0000069,-0000087,+0004156,-0000828,+0000520,-0002345,15:05:18.366268
0.057477,+0000018,-0000042,-0000010,+0000061,-0000093,+0004164,-0000828,+0000520,-0002345,15:05:18.366268
0.057810,+0000021,-0000018,+0000000,+0000070,-0000088,+0004166,-0000828,+0000520,-0002345,15:05:18.366268
0.058143,+0000024,-0000039,-0000014,+0000062,-0000073,+0004146,-0000798,+0000512,-0002357,15:05:18.366268
0.058476,+0000016,-0000018,-0000011,+0000059,-0000082,+0004156,-0000798,+0000512,-0002357,15:05:18.366268
0.058809,+0000005,-0000011,-0000005,+0000056,-0000074,+0004156,-0000798,+0000512,-0002357,15:05:18.366268
0.059142,+0000012,-0000007,-0000002,+0000070,-0000091,+0004174,-0000812,+0000512,-0002343,15:05:18.366268
0.059475,+0000008,-0000028,+0000000,+0000066,-0000086,+0004157,-0000812,+0000512,-0002343,15:05:18.366268
0.059808,+0000033,-0000042,-0000002,+0000060,-0000079,+0004159,-0000812,+0000512,-0002343,15:05:18.366268
0.060141,+0000019,-0000027,-0000013,+0000060,-0000086,+0004140,-0000804,+0000520,-0002357,15:05:18.366268
0.060474,-0000001,-0000010,-0000013,+0000067,-0000085,+0004145,-0000804,+0000520,-0002357,15:05:18.366268
0.060807,+0000021,-0000008,-0000013,+0000067,-0000098,+0004154,-0000804,+0000520,-0002357,15:05:18.369258
0.061140,-0000008,-0000016,-0000002,+0000080,-0000085,+0004146,-0000796,+0000518,-0002330,15:05:18.369258
0.061473,+0000014,-0000023,-0000005,+0000079,-0000100,+0004167,-0000796,+0000518,-0002330,15:05:18.369258
0.061806,+0000024,-0000032,+0000000,+0000061,-0000090,+0004165,-0000796,+0000518,-0002330,15:05:18.369258
0.062139,+0000011,-0000035,-0000013,+0000075,-0000092,+0004148,-0000818,+0000494,-0002336,15:05:18.369258
0.062472,+0000006,-0000027,-0000003,+0000070,-0000079,+0004163,-0000818,+0000494,-0002336,15:05:18.369258
0.062805,+0000008,-0000010,-0000002,+0000074,-0000095,+0004156,-0000818,+0000494,-0002336,15:05:18.369258
0.063138,+0000022,-0000016,-0000014,+0000066,-0000087,+0004161,-0000800,+0000516,-0002349,15:05:18.369258
0.063471,+0000010,-0000034,+0000001,+0000076,-0000069,+0004153,-0000800,+0000516,-0002349,15:05:18.369258
0.063804,+0000025,-0000042,-0000007,+0000055,-0000102,+0004150,-0000800,+0000516,-0002349,15:05:18.369258
0.064137,+0000016,-0000034,-0000002,+0000061,-0000091,+0004144,-0000802,+0000524,-0002360,15:05:18.369258
0.064470,+0000020,-0000030,-0000008,+0000068,-0000086,+0004159,-0000802,+0000524,-0002360,15:05:18.369258
0.064803,-0000003,-0000024,-0000010,+0000068,-0000092,+0004153,-0000802,+0000524,-0002360,15:05:18.369258
0.065136,+0000009,-0000011,-0000003,+0000045,-0000091,+0004166,-0000798,+0000514,-0002358,15:05:18.369258
0.065469,+0000005,-0000028,+0000001,+0000045,-0000103,+0004164,-0000798,+0000514,-0002358,15:05:18.369258
0.065802,+0000029,-0000027,-0000010,+0000073,-0000093,+0004162,-0000798,+0000514,-0002358,15:05:18.369258
0.066135,+0000010,-0000042,-0000008,+0000068,-0000104,+0004146,-0000810,+0000516,-0002351,15:05:18.369258
0.066468,+0000016,-0000015,-0000010,+0000058,-0000091,+0004164,-0000810,+0000516,-0002351,15:05:18.369258
0.066801,+0000000,-0000012,-0000001,+0000046,-0000069,+0004126,-0000810,+0000516,-0002351,15:05:18.369258
0.067134,-0000003,-0000027,+0000003,+0000034,-0000093,+0004154,-0000808,+0000498,-0002345,15:05:18.369258
0.067467,+0000014,-0000022,-0000005,+0000063,-0000082,+0004165,-0000808,+0000498,-0002345,15:05:18.369258
0.067800,+0000017,-0000042,-0000021,+0000078,-0000084,+0004164,-0000808,+0000498,-0002345,15:05:18.369258
0.068133,+0000024,-0000035,-0000004,+0000051,-0000099,+0004136,-0000806,+0000518,-0002349,15:05:18.369258
0.068466,+0000005,-0000024,-0000005,+0000070,-0000083,+0004140,-0000806,+0000518,-0002349,15:05:18.369258
0.068799,+0000002,-0000003,-0000007,+0000054,-0000079,+0004160,-0000806,+0000518,-0002349,15:05:18.369258
0.069132,+0000013,-0000016,+0000007,+0000057,-0000079,+0004175,-0000802,+0000516,-0002367,15:05:18.369258
0.069465,+0000035,-0000031,-0000013,+0000070,-0000099,+0004139,-0000802,+0000516,-0002367,15:05:18.369258
0.069798,+0000011,-0000032,+0000000,+0000055,-0000083,+0004143,-0000802,+0000516,-0002367,15:05:18.369258
0.070131,+0000029,-0000029,-0000016,+0000054,-0000075,+0004162,-0000824,+0000526,-0002347,15:05:18.369258
0.070464,+0000005,-0000003,-0000002,+0000061,-0000078,+0004164,-0000824,+0000526,-0002347,15:05:18.369258
0.070797,+0000009,-0000026,-0000011,+0000081,-0000082,+0004136,-0000824,+0000526,-0002347,15:05:18.369258
0.071130,+0000011,-0000018,-0000011,+0000073,-0000089,+0004161,-0000818,+0000522,-0002363,15:05:18.369258
0.071466,+0000005,-0000019,-0000010,+0000075,-0000096,+0004150,-0000818,+0000522,-0002363,15:05:18.369258
0.071796,+0000021,-0000034,+0000003,+0000080,-0000098,+0004146,-0000818,+0000522,-0002363,15:05:18.369258
0.072129,+0000017,-0000005,-0000010,+0000065,-0000096,+0004140,-0000808,+0000516,-0002371,15:05:18.369258
0.072462,-0000003,-0000007,-0000007,+0000042,-0000080,+0004150,-0000808,+0000516,-0002371,15:05:18.369258
0.072795,+0000018,-0000019,-0000010,+0000062,-0000083,+0004131,-0000808,+0000516,-0002371,15:05:18.369258
0.073128,+0000022,-0000023,-0000007,+0000074,-0000083,+0004154,-0000806,+0000530,-0002329,15:05:18.369258
0.073461,+0000016,-0000029,-0000007,+0000071,-0000063,+0004152,-0000806,+0000530,-0002329,15:05:18.369258
0.073794,+0000011,-0000016,-0000008,+0000076,-0000083,+0004163,-0000806,+0000530,-0002329,15:05:18.369258
0.074127,+0000020,-0000023,-0000005,+0000044,-0000082,+0004166,-0000796,+0000518,-0002358,15:05:18.369258
0.074460,+0000000,-0000008,-0000011,+0000069,-0000084,+0004156,-0000796,+0000518,-0002358,15:05:18.369258
0.074793,+0000020,-0000015,-0000011,+0000070,-0000074,+0004158,-0000796,+0000518,-0002358,15:05:18.369258
0.075126,-0000002,-0000016,-0000002,+0000051,-0000089,+0004154,-0000810,+0000510,-0002349,15:05:18.369258
0.075459,+0000025,-0000030,-0000012,+0000054,-0000065,+0004140,-0000810,+0000510,-0002349,15:05:18.369258
0.075792,+0000025,-0000031,-0000012,+0000065,-0000104,+0004135,-0000810,+0000510,-0002349,15:05:18.369258
0.076125,-0000001,-0000015,-0000007,+0000048,-0000094,+0004124,-0000808,+0000530,-0002323,15:05:18.369258
0.076458,+0000024,-0000019,-0000005,+0000059,-0000100,+0004157,-0000808,+0000530,-0002323,15:05:18.369258
0.076791,+0000014,-0000008,-0000005,+0000058,-0000092,+0004131,-0000808,+0000530,-0002323,15:05:18.369258
0.077124,+0000002,-0000029,+0000001,+0000054,-0000102,+0004153,-0000802,+0000512,-0002363,15:05:18.369258
0.077457,+0000027,-0000023,-0000007,+0000060,-0000105,+0004143,-0000802,+0000512,-0002363,15:05:18.369258
0.077790,+0000016,-0000034,-0000005,+0000046,-0000058,+0004143,-0000802,+0000512,-0002363,15:05:18.369258
0.078123,+0000016,-0000024,-0000010,+0000066,-0000101,+0004147,-0000800,+0000514,-0002347,15:05:18.369258
0.078456,-0000006,-0000016,-0000007,+0000049,-0000105,+0004164,-0000800,+0000514,-0002347,15:05:18.369258
0.078789,+0000019,-0000011,-0000002,+0000059,-0000070,+0004120,-0000800,+0000514,-0002347,15:05:18.369258
0.079122,+0000003,-0000018,-0000010,+0000056,-0000090,+0004148,-0000806,+0000512,-0002326,15:05:18.370274
0.079455,+0000017,-0000027,-0000010,+0000062,-0000079,+0004151,-0000806,+0000512,-0002326,15:05:18.371262
0.079788,+0000021,-0000034,-0000013,+0000060,-0000080,+0004161,-0000806,+0000512,-0002326,15:05:18.371262
0.080121,+0000006,-0000023,-0000010,+0000068,-0000082,+0004165,-0000814,+0000514,-0002364,15:05:18.371262
0.080454,+0000008,-0000023,-0000014,+0000066,-0000094,+0004159,-0000814,+0000514,-0002364,15:05:18.371262
0.080787,+0000013,-0000013,-0000011,+0000068,-0000100,+0004148,-0000814,+0000514,-0002364,15:05:18.371262
0.081120,+0000020,-0000035,-0000007,+0000069,-0000089,+0004146,-0000806,+0000258,-0002333,15:05:18.371262
0.081453,+0000010,-0000031,-0000013,+0000060,-0000086,+0004155,-0000806,+0000258,-0002333,15:05:18.371262
0.081786,+0000036,-0000044,-0000016,+0000057,-0000101,+0004163,-0000806,+0000258,-0002333,15:05:18.371262
0.082119,+0000019,-0000029,-0000010,+0000063,-0000111,+0004143,-0000804,+0000508,-0002355,15:05:18.371262
0.082452,-0000003,-0000005,+0000000,+0000066,-0000092,+0004166,-0000804,+0000508,-0002355,15:05:18.371262
0.082785,+0000005,-0000015,-0000004,+0000074,-0000077,+0004165,-0000804,+0000508,-0002355,15:05:18.371262
0.083118,+0000016,-0000029,-0000008,+0000062,-0000085,+0004139,-0000810,+0000532,-0002369,15:05:18.371262
0.083451,+0000019,-0000028,-0000013,+0000066,-0000079,+0004135,-0000810,+0000532,-0002369,15:05:18.371262
0.083784,+0000038,-0000034,-0000019,+0000073,-0000105,+0004167,-0000810,+0000532,-0002369,15:05:18.371262
0.084117,+0000003,-0000007,-0000013,+0000056,-0000095,+0004173,-0000816,+0000504,-0002376,15:05:18.371262
0.084450,+0000008,-0000015,-0000004,+0000068,-0000096,+0004153,-0000816,+0000504,-0002376,15:05:18.371262
0.084783,+0000018,-0000029,-0000004,+0000055,-0000078,+0004124,-0000816,+0000504,-0002376,15:05:18.371262
0.085116,+0000018,-0000023,-0000005,+0000071,-0000079,+0004136,-0000818,+0000502,-0002365,15:05:18.371262
0.085449,+0000020,-0000042,-0000016,+0000062,-0000059,+0004136,-0000818,+0000502,-0002365,15:05:18.371262
0.085783,+0000017,-0000016,-0000011,+0000064,-0000087,+0004151,-0000818,+0000502,-0002365,15:05:18.371262
0.086115,+0000006,-0000004,-0000007,+0000046,-0000080,+0004140,-0000810,+0000506,-0002343,15:05:18.371262
0.086448,+0000008,-0000015,-0000008,+0000065,-0000076,+0004127,-0000810,+0000506,-0002343,15:05:18.371262
0.086783,+0000013,-0000021,-0000003,+0000062,-0000088,+0004139,-0000810,+0000506,-0002343,15:05:18.371262
0.087114,+0000010,-0000023,-0000003,+0000061,-0000094,+0004160,-0000810,+0000506,-0002344,15:05:18.371262
0.087447,+0000033,-0000016,-0000012,+0000044,-0000093,+0004162,-0000810,+0000506,-0002344,15:05:18.371262
0.087780,+0000010,-0000023,-0000010,+0000064,-0000073,+0004175,-0000810,+0000506,-0002344,15:05:18.371262
0.088113,+0000010,-0000019,-0000007,+0000058,-0000091,+0004158,-0000796,+0000514,-0002352,15:05:18.371262
0.088446,+0000009,-0000011,-0000012,+0000066,-0000080,+0004165,-0000796,+0000514,-0002352,15:05:18.371262
0.088780,+0000011,-0000015,+0000003,+0000046,-0000082,+0004145,-0000796,+0000514,-0002352,15:05:18.371262
0.089112,+0000019,-0000031,-0000010,+0000067,-0000089,+0004156,-0000810,+0000512,-0002348,15:05:18.371262
0.089445,+0000024,-0000037,-0000013,+0000044,-0000068,+0004146,-0000810,+0000512,-0002348,15:05:18.371262
0.089780,+0000009,-0000028,-0000016,+0000076,-0000098,+0004145,-0000810,+0000512,-0002348,15:05:18.371262
0.090111,+0000010,-0000019,-0000006,+0000066,-0000090,+0004142,-0000804,+0000520,-0002368,15:05:18.371262
0.090444,+0000003,-0000010,+0000000,+0000052,-0000080,+0004156,-0000804,+0000520,-0002368,15:05:18.371262
0.090780,+0000016,-0000026,-0000005,+0000061,-0000104,+0004143,-0000804,+0000520,-0002368,15:05:18.371262
0.091110,+0000011,-0000021,-0000007,+0000066,-0000087,+0004149,-0000812,+0000508,-0002358,15:05:18.371262
0.091443,+0000016,-0000040,-0000013,+0000067,-0000077,+0004147,-0000812,+0000508,-0002358,15:05:18.371262
0.091776,+0000027,-0000018,-0000010,+0000062,-0000081,+0004149,-0000812,+0000508,-0002358,15:05:18.371262
0.092109,-0000004,-0000015,-0000008,+0000062,-0000092,+0004151,-0000798,+0000506,-0002353,15:05:18.371262
0.092442,-0000003,-0000015,+0000000,+0000066,-0000100,+0004151,-0000798,+0000506,-0002353,15:05:18.371262
0.092776,+0000004,-0000019,-0000011,+0000060,-0000095,+0004135,-0000798,+0000506,-0002353,15:05:18.415378
0.093108,+0000017,-0000042,-0000007,+0000060,-0000099,+0004154,-0000806,+0000522,-0002341,15:05:18.415378
0.093445,+0000014,-0000026,-0000007,+0000067,-0000085,+0004154,-0000806,+0000522,-0002341,15:05:18.415378
0.093983,-0000005,-0000013,-0000005,+0000072,-0000084,+0004147,-0000806,+0000522,-0002341,15:05:18.415378
0.094192,+0000025,-0000020,-0000015,+0000080,-0000094,+0004154,-0000820,+0000520,-0002355,15:05:18.415378
0.094589,+0000006,-0000016,+0000001,+0000056,-0000067,+0004138,-0000820,+0000520,-0002355,15:05:18.415378
0.094975,+0000008,-0000020,-0000007,+0000075,-0000093,+0004166,-0000820,+0000520,-0002355,15:05:18.415378
0.095134,+0000008,-0000020,-0000007,+0000075,-0000093,+0004166,-0000802,+0000504,-0002341,15:05:18.415378
0.095440,+0000002,-0000021,+0000001,+0000047,-0000089,+0004166,-0000802,+0000504,-0002341,15:05:18.415378
0.095779,+0000017,-0000018,-0000010,+0000056,-0000079,+0004158,-0000802,+0000504,-0002341,15:05:18.415378
0.096105,+0000009,-0000019,-0000012,+0000078,-0000068,+0004152,-0000804,+0000522,-0002351,15:05:18.415378
0.096438,+0000008,-0000024,-0000011,+0000056,-0000079,+0004134,-0000804,+0000522,-0002351,15:05:18.415378
0.096776,+0000025,-0000035,-0000007,+0000054,-0000089,+0004155,-0000804,+0000522,-0002351,15:05:18.415378
0.097104,+0000026,-0000034,-0000008,+0000065,-0000089,+0004149,-0000816,+0000512,-0002319,15:05:18.415378
0.097437,+0000024,-0000029,-0000017,+0000070,-0000083,+0004146,-0000816,+0000512,-0002319,15:05:18.415378
0.098009,+0000008,-0000018,-0000015,+0000067,-0000111,+0004155,-0000816,+0000512,-0002319,15:05:18.415378
0.098211,+0000002,-0000018,-0000015,+0000067,-0000111,+0004155,-0000814,+0000518,-0002360,15:05:18.415378
0.098542,+0000013,-0000013,-0000002,+0000049,-0000087,+0004171,-0000814,+0000518,-0002360,15:05:18.415378
0.098775,+0000013,-0000030,-0000016,+0000060,-0000087,+0004171,-0000814,+0000518,-0002360,15:05:18.415378
0.099105,+0000022,-0000008,-0000014,+0000042,-0000083,+0004149,-0000806,+0000526,-0002313,15:05:18.415378
0.099437,+0000000,-0000029,-0000013,+0000047,-0000082,+0004155,-0000806,+0000526,-0002313,15:05:18.415378
0.099802,+0000010,-0000016,-0000010,+0000046,-0000084,+0004142,-0000806,+0000526,-0002313,15:05:18.415378
0.100102,+0000011,-0000010,-0000018,+0000061,-0000064,+0004156,-0000818,+0000516,-0002335,15:05:18.415378
0.100435,+0000000,-0000028,+0000000,+0000086,-0000087,+0004144,-0000818,+0000516,-0002335,15:05:18.415378
0.100878,+0000031,-0000043,-0000010,+0000071,-0000092,+0004144,-0000818,+0000516,-0002335,15:05:18.415378
0.101100,+0000031,-0000019,-0000011,+0000057,-0000090,+0004154,-0000810,+0000518,-0002317,15:05:18.415378
0.101433,+0000013,-0000021,-0000005,+0000058,-0000087,+0004150,-0000810,+0000518,-0002317,15:05:18.415378
0.101774,+0000003,-0000019,-0000010,+0000065,-0000090,+0004134,-0000810,+0000518,-0002317,15:05:18.415378
0.102099,+0000008,-0000015,-0000002,+0000065,-0000086,+0004157,-0000802,+0000540,-0002337,15:05:18.415378
0.102432,+0000017,-0000030,-0000007,+0000052,-0000125,+0004158,-0000802,+0000540,-0002337,15:05:18.415378
0.102772,+0000016,-0000039,-0000010,+0000076,-0000068,+0004144,-0000802,+0000540,-0002337,15:05:18.415378
0.103101,+0000017,-0000024,-0000016,+0000061,-0000086,+0004159,-0000808,+0000524,-0002338,15:05:18.415378
0.103434,+0000019,-0000027,+0000004,+0000071,-0000096,+0004165,-0000808,+0000524,-0002338,15:05:18.415378
0.103770,+0000025,-0000034,-0000016,+0000076,-0000086,+0004145,-0000808,+0000524,-0002338,15:05:18.415378
0.104097,+0000000,-0000015,-0000010,+0000075,-0000075,+0004136,-0000806,+0000524,-0002321,15:05:18.415378
0.104430,+0000019,-0000030,+0000001,+0000066,-0000078,+0004149,-0000806,+0000524,-0002321,15:05:18.415378
0.104769,+0000033,-0000037,-0000022,+0000070,-0000087,+0004126,-0000806,+0000524,-0002321,15:05:18.415378
0.105096,+0000017,-0000029,-0000002,+0000070,-0000070,+0004145,-0000796,+0000512,-0002356,15:05:18.415378
0.105429,+0000017,-0000010,-0000011,+0000055,-0000087,+0004133,-0000796,+0000512,-0002356,15:05:18.415378
0.105768,+0000019,-0000019,-0000008,+0000068,-0000094,+0004152,-0000796,+0000512,-0002356,15:05:18.415378
0.106095,+0000006,-0000018,-0000005,+0000046,-0000099,+0004161,-0000812,+0000514,-0002338,15:05:18.415378
0.106428,+0000012,-0000032,-0000007,+0000047,-0000088,+0004159,-0000812,+0000514,-0002338,15:05:18.415378
0.106767,+0000019,-0000037,-0000012,+0000065,-0000080,+0004160,-0000812,+0000514,-0002338,15:05:18.415378
0.107094,+0000017,-0000038,-0000011,+0000039,-0000085,+0004147,-0000812,+0000510,-0002336,15:05:18.415378
0.107427,+0000008,-0000019,-0000010,+0000059,-0000100,+0004151,-0000812,+0000510,-0002336,15:05:18.415378
0.107760,-0000003,-0000010,+0000008,+0000059,-0000105,+0004131,-0000812,+0000510,-0002336,15:05:18.415378
0.108093,-0000003,+0000001,+0000017,+0000048,-0000080,+0004138,-0000798,+0000522,-0002345,15:05:18.415378
0.108426,+0000049,-0000029,-0000015,+0000058,-0000100,+0004157,-0000798,+0000522,-0002345,15:05:18.415378
0.108759,-0000003,-0000029,-0000002,+0000045,-0000090,+0004156,-0000798,+0000522,-0002345,15:05:18.415378
0.109092,+0000017,-0000033,-0000015,+0000056,-0000091,+0004168,-0000782,+0000520,-0002351,15:05:18.415378
0.109425,+0000014,-0000018,-0000008,+0000060,-0000087,+0004168,-0000782,+0000520,-0002351,15:05:18.415378
0.109758,+0000011,+0000003,+0000002,+0000065,-0000080,+0004155,-0000782,+0000520,-0002351,15:05:18.415378
0.110091,-0000011,-0000005,-0000015,+0000073,-0000084,+0004160,-0000810,+0000518,-0002349,15:05:18.415378
0.110424,+0000019,-0000035,-0000007,+0000064,-0000080,+0004154,-0000810,+0000518,-0002349,15:05:18.415378
0.110757,+0000022,-0000026,-0000008,+0000072,-0000083,+0004164,-0000810,+0000518,-0002349,15:05:18.415378
0.111090,+0000025,-0000029,-0000013,+0000072,-0000087,+0004156,-0000804,+0000538,-0002334,15:05:18.415378
0.111423,+0000004,-0000007,+0000000,+0000061,-0000087,+0004163,-0000804,+0000538,-0002334,15:05:18.415378
0.111756,+0000025,-0000018,-0000016,+0000054,-0000100,+0004144,-0000804,+0000538,-0002334,15:05:18.416846
0.112089,+0000019,-0000026,+0000000,+0000059,-0000086,+0004150,-0000820,+0000520,-0002336,15:05:18.416846
0.112422,+0000011,-0000029,-0000005,+0000068,-0000095,+0004167,-0000820,+0000520,-0002336,15:05:18.417851
0.112755,+0000020,-0000034,-0000007,+0000072,-0000083,+0004147,-0000820,+0000520,-0002336,15:05:18.417851
0.113088,+0000027,-0000019,-0000005,+0000070,-0000085,+0004147,-0000808,+0000510,-0002342,15:05:18.417851
0.113421,+0000016,-0000026,-0000011,+0000069,-0000082,+0004145,-0000808,+0000510,-0002342,15:05:18.417851
0.113754,+0000002,-0000016,-0000006,+0000064,-0000086,+0004155,-0000808,+0000510,-0002342,15:05:18.417851
0.114087,+0000003,-0000013,-0000010,+0000071,-0000091,+0004136,-0000812,+0000516,-0002333,15:05:18.417851
0.114420,+0000007,-0000032,-0000013,+0000055,-0000100,+0004138,-0000812,+0000516,-0002333,15:05:18.417851
0.114753,+0000024,-0000016,+0000001,+0000060,-0000104,+0004147,-0000812,+0000516,-0002333,15:05:18.417851
0.115086,+0000011,-0000026,-0000010,+0000075,-0000081,+0004143,-0000792,+0000520,-0002330,15:05:18.417851
0.115419,+0000010,-0000013,-0000015,+0000068,-0000086,+0004143,-0000792,+0000520,-0002330,15:05:18.417851
0.115752,+0000003,-0000011,-0000002,+0000048,-0000101,+0004159,-0000792,+0000520,-0002330,15:05:18.417851
0.116085,+0000022,-0000024,-0000010,+0000093,-0000090,+0004172,-0000802,+0000530,-0002350,15:05:18.417851
0.116418,+0000011,-0000022,-0000016,+0000068,-0000088,+0004161,-0000802,+0000530,-0002350,15:05:18.417851
0.116751,+0000025,-0000035,-0000004,+0000063,-0000081,+0004164,-0000802,+0000530,-0002350,15:05:18.417851
0.117084,+0000019,-0000022,-0000021,+0000059,-0000078,+0004177,-0000820,+0000526,-0002355,15:05:18.417851
0.117417,+0000005,-0000016,-0000003,+0000067,-0000076,+0004154,-0000820,+0000526,-0002355,15:05:18.417851
0.117750,+0000011,-0000012,-0000007,+0000057,-0000078,+0004171,-0000820,+0000526,-0002355,15:05:18.417851
0.118083,+0000009,-0000028,-0000013,+0000074,-0000079,+0004150,-0000806,+0000520,-0002353,15:05:18.417851
0.118416,+0000003,-0000013,+0000001,+0000072,-0000090,+0004171,-0000806,+0000520,-0002353,15:05:18.417851
0.118749,+0000030,-0000045,-0000023,+0000050,-0000095,+0004162,-0000806,+0000520,-0002353,15:05:18.417851
0.119083,+0000006,-0000013,+0000005,+0000058,-0000096,+0004166,-0000804,+0000518,-0002329,15:05:18.417851
0.119415,+0000027,-0000032,-0000015,+0000061,-0000084,+0004152,-0000804,+0000518,-0002329,15:05:18.417851
0.119748,+0000009,-0000015,-0000013,+0000060,-0000084,+0004166,-0000804,+0000518,-0002329,15:05:18.417851
0.120081,+0000008,-0000019,-0000005,+0000067,-0000090,+0004158,-0000794,+0000516,-0002327,15:05:18.417851
0.120414,+0000014,-0000029,-0000013,+0000057,-0000088,+0004156,-0000794,+0000516,-0002327,15:05:18.417851
0.120747,+0000028,-0000037,-0000018,+0000080,-0000080,+0004156,-0000794,+0000516,-0002327,15:05:18.417851
0.121080,+0000007,-0000019,-0000007,+0000066,-0000082,+0004145,-0000808,+0000542,-0002361,15:05:18.417851
0.121413,+0000003,-0000019,-0000011,+0000055,-0000058,+0004159,-0000808,+0000542,-0002361,15:05:18.417851
0.121746,+0000022,-0000010,+0000000,+0000075,-0000075,+0004139,-0000808,+0000542,-0002361,15:05:18.418851
0.122079,+0000003,-0000035,-0000005,+0000071,-0000089,+0004147,-0000810,+0000518,-0002358,15:05:18.418851
0.122412,+0000016,-0000031,-0000010,+0000053,-0000080,+0004156,-0000810,+0000518,-0002358,15:05:18.418851
0.122745,+0000025,-0000029,-0000010,+0000034,-0000081,+0004151,-0000810,+0000518,-0002358,15:05:18.418851
0.123078,+0000019,-0000021,-0000013,+0000049,-0000081,+0004141,-0000810,+0000518,-0002329,15:05:18.418851
0.123411,+0000006,-0000008,-0000003,+0000070,-0000053,+0004150,-0000810,+0000518,-0002329,15:05:18.418851
0.123744,+0000009,-0000024,-0000005,+0000076,-0000097,+0004141,-0000810,+0000518,-0002329,15:05:18.418851
0.124077,+0000014,-0000030,-0000016,+0000066,-0000093,+0004147,-0000812,+0000514,-0002339,15:05:18.418851
0.124410,+0000016,-0000016,-0000008,+0000055,-0000083,+0004157,-0000812,+0000514,-0002339,15:05:18.418851
0.124743,+0000021,-0000040,-0000011,+0000055,-0000107,+0004163,-0000812,+0000514,-0002339,15:05:18.418851
0.125076,+0000011,-0000011,-0000011,+0000060,-0000112,+0004139,-0000808,+0000518,-0002332,15:05:18.420858
0.125409,+0000019,-0000031,-0000005,+0000062,-0000101,+0004142,-0000808,+0000518,-0002332,15:05:18.422856
0.125742,+0000013,-0000016,+0000001,+0000065,-0000110,+0004153,-0000808,+0000518,-0002332,15:05:18.422856
0.126075,+0000016,-0000038,-0000023,+0000070,-0000083,+0004142,-0000820,+0000512,-0002352,15:05:18.422856
0.126408,+0000024,-0000046,-0000005,+0000062,-0000092,+0004165,-0000820,+0000512,-0002352,15:05:18.422856
0.126741,+0000025,-0000023,-0000013,+0000077,-0000108,+0004159,-0000820,+0000512,-0002352,15:05:18.422856
0.127074,+0000011,-0000011,-0000011,+0000056,-0000073,+0004138,-0000796,+0000516,-0002336,15:05:18.422856
0.127407,+0000008,-0000016,-0000002,+0000070,-0000085,+0004132,-0000796,+0000516,-0002336,15:05:18.422856
0.127740,+0000014,-0000031,-0000005,+0000069,-0000086,+0004159,-0000796,+0000516,-0002336,15:05:18.422856
0.128073,+0000027,-0000028,-0000005,+0000065,-0000084,+0004145,-0000820,+0000524,-0002361,15:05:18.422856
0.128406,+0000014,-0000026,-0000023,+0000064,-0000098,+0004139,-0000820,+0000524,-0002361,15:05:18.422856
0.128739,+0000000,-0000015,-0000005,+0000044,-0000100,+0004141,-0000820,+0000524,-0002361,15:05:18.422856
0.129072,+0000020,-0000011,-0000007,+0000068,-0000080,+0004166,-0000812,+0000498,-0002331,15:05:18.422856
0.129405,-0000006,-0000012,-0000010,+0000065,-0000088,+0004163,-0000812,+0000498,-0002331,15:05:18.428859
0.129738,+0000027,-0000026,-0000011,+0000054,-0000087,+0004129,-0000812,+0000498,-0002331,15:05:18.428859
0.130071,+0000017,-0000024,-0000015,+0000063,-0000090,+0004142,-0000796,+0000508,-0002341,15:05:18.428859
0.130404,+0000014,-0000036,+0000000,+0000058,-0000084,+0004153,-0000796,+0000508,-0002341,15:05:18.428859
0.130737,+0000002,-0000015,-0000018,+0000060,-0000067,+0004144,-0000796,+0000508,-0002341,15:05:18.428859
0.131070,+0000011,-0000023,-0000010,+0000076,-0000093,+0004150,-0000810,+0000526,-0002368,15:05:18.428859
0.131403,+0000000,-0000008,-0000012,+0000075,-0000101,+0004139,-0000810,+0000526,-0002368,15:05:18.428859
0.131736,+0000025,-0000018,-0000012,+0000063,-0000094,+0004158,-0000810,+0000526,-0002368,15:05:18.428859
0.132069,+0000017,-0000034,-0000013,+0000077,-0000097,+0004141,-0000812,+0000526,-0002333,15:05:18.428859
0.132402,+0000018,-0000039,-0000008,+0000069,-0000091,+0004139,-0000812,+0000526,-0002333,15:05:18.428859
0.132735,+0000019,-0000031,-0000008,+0000051,-0000096,+0004142,-0000812,+0000526,-0002333,15:05:18.428859
0.133068,-0000005,-0000012,-0000007,+0000076,-0000093,+0004161,-0000806,+0000534,-0002376,15:05:18.428859
0.133401,+0000012,-0000018,-0000008,+0000075,-0000116,+0004137,-0000806,+0000534,-0002376,15:05:18.428859
0.133734,+0000030,-0000026,-0000014,+0000063,-0000090,+0004157,-0000806,+0000534,-0002376,15:05:18.428859
0.134067,+0000008,-0000037,-0000006,+0000067,-0000104,+0004145,-0000802,+0000532,-0002339,15:05:18.428859
0.134400,+0000020,-0000030,-0000010,+0000058,-0000079,+0004143,-0000802,+0000532,-0002339,15:05:18.428859
0.134733,+0000011,-0000018,-0000015,+0000065,-0000077,+0004148,-0000802,+0000532,-0002339,15:05:18.428859
0.135066,+0000013,-0000026,-0000007,+0000060,-0000088,+0004156,-0000806,+0000520,-0002337,15:05:18.428859
0.135399,+0000007,-0000015,-0000002,+0000040,-0000098,+0004135,-0000806,+0000520,-0002337,15:05:18.428859
0.135732,+0000020,-0000024,-0000005,+0000060,-0000100,+0004159,-0000806,+0000520,-0002337,15:05:18.428859
0.136065,+0000021,-0000032,-0000005,+0000071,-0000083,+0004164,-0000806,+0000510,-0002347,15:05:18.428859
0.136398,+0000030,-0000034,-0000018,+0000052,-0000086,+0004129,-0000806,+0000510,-0002347,15:05:18.428859
0.136731,+0000011,-0000024,-0000007,+0000060,-0000079,+0004157,-0000806,+0000510,-0002347,15:05:18.428859
0.137064,+0000008,-0000012,+0000001,+0000073,-0000096,+0004151,-0000828,+0000522,-0002364,15:05:18.428859
0.137397,+0000016,-0000023,-0000011,+0000065,-0000075,+0004158,-0000828,+0000522,-0002364,15:05:18.428859
0.137730,+0000013,-0000029,-0000001,+0000076,-0000102,+0004168,-0000828,+0000522,-0002364,15:05:18.428859
0.138063,+0000023,-0000034,-0000015,+0000051,-0000078,+0004157,-0000818,+0000496,-0002339,15:05:18.428859
0.138396,+0000019,-0000040,-0000010,+0000062,-0000074,+0004135,-0000818,+0000496,-0002339,15:05:18.428859
0.138729,+0000014,-0000022,-0000014,+0000072,-0000092,+0004140,-0000818,+0000496,-0002339,15:05:18.428859
0.139062,+0000002,-0000018,+0000003,+0000065,-0000089,+0004135,-0000802,+0000524,-0002329,15:05:18.428859
0.139395,+0000018,-0000018,-0000024,+0000061,-0000089,+0004149,-0000802,+0000524,-0002329,15:05:18.428859
0.139728,+0000011,-0000038,-0000002,+0000063,-0000088,+0004159,-0000802,+0000524,-0002329,15:05:18.428859
0.140061,+0000033,-0000036,-0000010,+0000073,-0000092,+0004152,-0000802,+0000510,-0002341,15:05:18.428859
0.140394,+0000017,-0000026,-0000007,+0000064,-0000087,+0004156,-0000802,+0000510,-0002341,15:05:18.428859
0.140727,+0000000,-0000004,-0000010,+0000066,-0000102,+0004153,-0000802,+0000510,-0002341,15:05:18.428859
0.141060,+0000005,-0000024,-0000008,+0000066,-0000075,+0004152,-0000810,+0000516,-0002340,15:05:18.428859
0.141393,+0000003,-0000021,+0000006,+0000050,-0000091,+0004141,-0000810,+0000516,-0002340,15:05:18.428859
0.141726,+0000024,-0000033,-0000016,+0000073,-0000079,+0004143,-0000810,+0000516,-0002340,15:05:18.428859
0.142059,+0000014,-0000018,-0000002,+0000059,-0000077,+0004141,-0000808,+0000520,-0002313,15:05:18.428859
0.142392,+0000028,-0000026,-0000010,+0000066,-0000090,+0004128,-0000808,+0000520,-0002313,15:05:18.428859
0.142727,-0000001,-0000007,-0000005,+0000070,-0000077,+0004165,-0000808,+0000520,-0002313,15:05:18.468640
0.143058,+0000003,-0000021,-0000007,+0000081,-0000093,+0004161,-0000822,+0000518,-0002348,15:05:18.468640
0.143396,+0000016,-0000015,-0000010,+0000063,-0000088,+0004161,-0000822,+0000518,-0002348,15:05:18.468640
0.144013,+0000019,-0000021,-0000008,+0000058,-0000077,+0004151,-0000822,+0000518,-0002348,15:05:18.468640
0.144229,+0000019,-0000021,-0000008,+0000058,-0000077,+0004137,-0000814,+0000514,-0002348,15:05:18.468640
0.144465,+0000013,-0000021,-0000013,+0000075,-0000089,+0004137,-0000814,+0000514,-0002348,15:05:18.468640
0.144911,+0000007,-0000016,-0000004,+0000072,-0000103,+0004142,-0000814,+0000514,-0002348,15:05:18.468640
0.145097,+0000007,-0000016,-0000004,+0000062,-0000102,+0004164,-0000816,+0000510,-0002319,15:05:18.468640
0.145391,+0000016,-0000013,+0000001,+0000070,-0000085,+0004168,-0000816,+0000510,-0002319,15:05:18.468640
0.145742,+0000021,-0000037,-0000012,+0000081,-0000089,+0004128,-0000816,+0000510,-0002319,15:05:18.468640
0.146210,+0000024,-0000032,-0000011,+0000068,-0000094,+0004158,-0000804,+0000518,-0002356,15:05:18.468640
0.146473,+0000013,-0000023,-0000011,+0000046,-0000089,+0004148,-0000804,+0000518,-0002356,15:05:18.468640
0.146723,+0000000,-0000007,-0000008,+0000046,-0000089,+0004163,-0000804,+0000518,-0002356,15:05:18.468640
0.147054,+0000014,-0000019,-0000013,+0000051,-0000067,+0004143,-0000812,+0000522,-0002366,15:05:18.468640
0.147388,+0000014,-0000037,-0000016,+0000069,-0000100,+0004138,-0000812,+0000522,-0002366,15:05:18.468640
0.147720,+0000022,-0000034,-0000013,+0000068,-0000101,+0004164,-0000812,+0000522,-0002366,15:05:18.468640
0.148053,+0000017,-0000033,-0000010,+0000081,-0000089,+0004147,-0000796,+0000510,-0002347,15:05:18.468640
0.148386,+0000026,-0000027,-0000022,+0000060,-0000084,+0004148,-0000796,+0000510,-0002347,15:05:18.468640
0.148720,+0000006,-0000016,-0000011,+0000058,-0000081,+0004139,-0000796,+0000510,-0002347,15:05:18.468640
0.149053,+0000002,-0000029,-0000004,+0000063,-0000100,+0004157,-0000802,+0000510,-0002352,15:05:18.468640
0.149386,+0000014,-0000023,-0000019,+0000066,-0000074,+0004150,-0000802,+0000510,-0002352,15:05:18.468640
0.149719,+0000025,-0000035,-0000002,+0000054,-0000105,+0004160,-0000802,+0000510,-0002352,15:05:18.468640
0.150051,+0000016,-0000044,-0000015,+0000058,-0000075,+0004144,-0000802,+0000510,-0002356,15:05:18.468640
0.150386,+0000013,-0000034,-0000008,+0000061,-0000093,+0004157,-0000802,+0000510,-0002356,15:05:18.468640
0.150717,-0000003,-0000010,-0000003,+0000061,-0000081,+0004161,-0000802,+0000510,-0002356,15:05:18.468640
0.151050,+0000010,-0000021,-0000014,+0000053,-0000059,+0004142,-0000804,+0000512,-0002336,15:05:18.468640
0.151383,+0000008,-0000031,-0000003,+0000068,-0000098,+0004154,-0000804,+0000512,-0002336,15:05:18.468640
0.151716,+0000030,-0000040,-0000007,+0000081,-0000086,+0004174,-0000804,+0000512,-0002336,15:05:18.468640
0.152049,+0000011,-0000037,-0000022,+0000074,-0000076,+0004156,-0000804,+0000494,-0002340,15:05:18.468640
0.152382,+0000011,-0000026,-0000017,+0000073,-0000081,+0004158,-0000804,+0000494,-0002340,15:05:18.468640
0.152715,+0000006,-0000016,-0000005,+0000080,-0000069,+0004158,-0000804,+0000494,-0002340,15:05:18.468640
0.153048,+0000005,-0000026,+0000001,+0000065,-0000077,+0004156,-0000810,+0000526,-0002366,15:05:18.468640
0.153394,+0000027,-0000034,-0000010,+0000056,-0000088,+0004165,-0000810,+0000526,-0002366,15:05:18.468640
0.153714,+0000019,-0000021,-0000010,+0000073,-0000093,+0004149,-0000810,+0000526,-0002366,15:05:18.468640
0.154047,+0000010,-0000013,-0000011,+0000066,-0000093,+0004159,-0000798,+0000514,-0002341,15:05:18.468640
0.154393,+0000007,-0000010,-0000010,+0000066,-0000105,+0004144,-0000798,+0000514,-0002341,15:05:18.468640
0.154713,+0000011,-0000023,-0000007,+0000065,-0000091,+0004160,-0000798,+0000514,-0002341,15:05:18.468640
0.155046,+0000010,-0000021,-0000005,+0000059,-0000083,+0004155,-0000804,+0000506,-0002356,15:05:18.468640
0.155392,+0000028,-0000027,-0000011,+0000056,-0000068,+0004131,-0000804,+0000506,-0002356,15:05:18.468640
0.155712,+0000018,-0000027,-0000010,+0000064,-0000097,+0004149,-0000804,+0000506,-0002356,15:05:18.468640
0.156045,+0000021,-0000008,-0000008,+0000053,-0000075,+0004142,-0000796,+0000526,-0002343,15:05:18.468640
0.156391,+0000002,-0000018,-0000008,+0000073,-0000086,+0004138,-0000796,+0000526,-0002343,15:05:18.468640
0.156711,+0000002,-0000013,-0000004,+0000071,-0000069,+0004145,-0000796,+0000526,-0002343,15:05:18.468640
0.157044,+0000010,-0000032,-0000007,+0000068,-0000091,+0004158,-0000806,+0000516,-0002311,15:05:18.468640
0.157390,+0000024,-0000040,+0000001,+0000078,-0000085,+0004146,-0000806,+0000516,-0002311,15:05:18.468640
0.157710,+0000013,-0000026,-0000010,+0000066,-0000080,+0004148,-0000806,+0000516,-0002311,15:05:18.468640
0.158043,+0000006,-0000026,-0000011,+0000060,-0000082,+0004157,-0000822,+0000508,-0002333,15:05:18.468640
0.158389,+0000020,-0000009,-0000012,+0000072,-0000081,+0004158,-0000822,+0000508,-0002333,15:05:18.468640
0.158709,-0000006,-0000007,-0000007,+0000041,-0000093,+0004159,-0000822,+0000508,-0002333,15:05:18.468640
0.159042,+0000038,-0000040,-0000005,+0000064,-0000090,+0004165,-0000816,+0000520,-0002339,15:05:18.468640
0.159378,+0000016,-0000026,-0000005,+0000081,-0000093,+0004172,-0000816,+0000520,-0002339,15:05:18.468640
0.159708,+0000016,-0000037,-0000011,+0000064,-0000107,+0004137,-0000816,+0000520,-0002339,15:05:18.468640
0.160041,+0000014,-0000028,-0000002,+0000053,-0000087,+0004150,-0000808,+0000516,-0002318,15:05:18.468640
0.160374,+0000006,-0000019,-0000019,+0000068,-0000067,+0004157,-0000808,+0000516,-0002318,15:05:18.468640
0.160707,+0000013,-0000012,+0000003,+0000062,-0000084,+0004162,-0000808,+0000516,-0002318,15:05:18.468640
0.161040,+0000013,-0000019,+0000001,+0000070,-0000092,+0004143,-0000800,+0000518,-0002352,15:05:18.468640
0.161373,+0000023,-0000038,-0000007,+0000065,-0000105,+0004131,-0000800,+0000518,-0002352,15:05:18.468640
0.161706,+0000022,-0000031,-0000016,+0000073,-0000074,+0004136,-0000800,+0000518,-0002352,15:05:18.468640
0.162039,+0000024,-0000029,-0000013,+0000067,-0000081,+0004153,-0000804,+0000508,-0002304,15:05:18.468640
0.162372,+0000003,-0000004,+0000003,+0000064,-0000083,+0004157,-0000804,+0000508,-0002304,15:05:18.468640
0.162705,+0000001,-0000021,+0000000,+0000074,-0000079,+0004139,-0000804,+0000508,-0002304,15:05:18.468640
0.163038,+0000009,-0000026,-0000008,+0000065,-0000074,+0004142,-0000798,+0000512,-0002352,15:05:18.468640
0.163371,+0000020,-0000034,-0000006,+0000052,-0000087,+0004153,-0000798,+0000512,-0002352,15:05:18.468640
0.163704,+0000027,-0000038,-0000016,+0000050,-0000088,+0004132,-0000798,+0000512,-0002352,15:05:18.468640
0.164037,+0000008,-0000029,-0000007,+0000083,-0000085,+0004165,-0000802,+0000498,-0002347,15:05:18.468640
0.164370,-0000001,+0000003,+0000001,+0000050,-0000110,+0004174,-0000802,+0000498,-0002347,15:05:18.468640
0.164703,+0000005,-0000031,-0000016,+0000060,-0000080,+0004154,-0000802,+0000498,-0002347,15:05:18.468640
0.165036,+0000014,-0000031,+0000004,+0000051,-0000098,+0004144,-0000802,+0000500,-0002346,15:05:18.468640
0.165369,+0000024,-0000020,-0000002,+0000058,-0000074,+0004157,-0000802,+0000500,-0002346,15:05:18.468640
0.165702,+0000030,-0000056,-0000032,+0000062,-0000092,+0004135,-0000802,+0000500,-0002346,15:05:18.468640
0.166035,+0000017,-0000013,-0000023,+0000069,-0000097,+0004150,-0000816,+0000510,-0002332,15:05:18.468640
0.166368,-0000001,-0000015,+0000003,+0000049,-0000082,+0004132,-0000816,+0000510,-0002332,15:05:18.468640
0.166701,+0000022,-0000022,-0000016,+0000047,-0000080,+0004148,-0000816,+0000510,-0002332,15:05:18.468640
0.167034,+0000001,-0000028,-0000010,+0000085,-0000079,+0004166,-0000808,+0000514,-0002325,15:05:18.468640
0.167367,+0000032,-0000042,-0000014,+0000063,-0000081,+0004143,-0000808,+0000514,-0002325,15:05:18.468640
0.167700,+0000018,-0000021,-0000018,+0000064,-0000103,+0004134,-0000808,+0000514,-0002325,15:05:18.468640
0.168033,+0000011,-0000018,+0000000,+0000067,-0000096,+0004146,-0000802,+0000498,-0002351,15:05:18.468640
0.168366,+0000018,-0000004,-0000011,+0000072,-0000079,+0004144,-0000802,+0000498,-0002351,15:05:18.468640
0.168699,-0000008,-0000017,-0000003,+0000066,-0000062,+0004165,-0000802,+0000498,-0002351,15:05:18.468640
0.169032,+0000022,-0000048,-0000010,+0000046,-0000072,+0004171,-0000810,+0000504,-0002352,15:05:18.468640
0.169365,+0000030,-0000008,-0000010,+0000054,-0000083,+0004158,-0000810,+0000504,-0002352,15:05:18.468640
0.169698,+0000017,-0000029,-0000012,+0000063,-0000095,+0004152,-0000810,+0000504,-0002352,15:05:18.468640
0.170031,+0000006,-0000016,-0000002,+0000083,-0000083,+0004146,-0000820,+0000508,-0002342,15:05:18.468640
0.170364,+0000008,-0000005,-0000007,+0000070,-0000118,+0004146,-0000820,+0000508,-0002342,15:05:18.468640
0.170697,+0000014,-0000032,-0000005,+0000071,-0000103,+0004145,-0000820,+0000508,-0002342,15:05:18.468640
0.171030,+0000003,-0000026,-0000014,+0000057,-0000088,+0004171,-0000816,+0000518,-0002346,15:05:18.468640
0.171363,+0000020,-0000031,-0000011,+0000084,-0000097,+0004154,-0000816,+0000518,-0002346,15:05:18.468640
0.171696,+0000017,-0000029,-0000013,+0000053,-0000089,+0004156,-0000816,+0000518,-0002346,15:05:18.468640
0.172029,-0000001,-0000016,+0000002,+0000061,-0000089,+0004146,-0000804,+0000518,-0002355,15:05:18.468640
0.172362,+0000008,-0000008,-0000010,+0000056,-0000092,+0004167,-0000804,+0000518,-0002355,15:05:18.468640
0.172695,+0000017,-0000016,-0000008,+0000056,-0000093,+0004156,-0000804,+0000518,-0002355,15:05:18.468640
0.173028,+0000011,-0000034,-0000011,+0000049,-0000084,+0004174,-0000800,+0000512,-0002344,15:05:18.468640
0.173361,+0000030,-0000029,-0000013,+0000062,-0000100,+0004165,-0000800,+0000512,-0002344,15:05:18.468640
0.173696,+0000025,-0000016,-0000021,+0000057,-0000091,+0004143,-0000800,+0000512,-0002344,15:05:18.468640
0.174027,+0000005,-0000031,-0000008,+0000056,-0000084,+0004163,-0000812,+0000532,-0002350,15:05:18.468640
0.174360,+0000022,-0000020,-0000002,+0000060,-0000078,+0004161,-0000812,+0000532,-0002350,15:05:18.468640
0.174693,+0000025,-0000020,-0000012,+0000058,-0000079,+0004164,-0000812,+0000532,-0002350,15:05:18.468640
0.175026,+0000008,-0000024,-0000015,+0000062,-0000095,+0004158,-0000808,+0000508,-0002365,15:05:18.468640
0.175359,+0000010,-0000032,-0000002,+0000048,-0000091,+0004155,-0000808,+0000508,-0002365,15:05:18.468640
0.175692,+0000033,-0000034,-0000024,+0000072,-0000091,+0004159,-0000808,+0000508,-0002365,15:05:18.468640
0.176025,-0000008,-0000008,+0000008,+0000040,-0000072,+0004161,-0000818,+0000518,-0002345,15:05:18.468640
0.176358,+0000000,-0000007,+0000000,+0000071,-0000090,+0004153,-0000818,+0000518,-0002345,15:05:18.468640
0.176691,+0000016,-0000016,-0000002,+0000062,-0000073,+0004141,-0000818,+0000518,-0002345,15:05:18.468640
0.177024,+0000030,-0000039,-0000016,+0000057,-0000080,+0004158,-0000814,+0000506,-0002359,15:05:18.468640
0.177357,+0000003,-0000045,-0000013,+0000055,-0000084,+0004149,-0000814,+0000506,-0002359,15:05:18.468640
0.177690,+0000021,-0000013,-0000012,+0000062,-0000089,+0004145,-0000814,+0000506,-0002359,15:05:18.468640
0.178023,+0000003,+0000003,-0000008,+0000050,-0000063,+0004139,-0000810,+0000512,-0002343,15:05:18.468640
0.178356,+0000004,-0000018,+0000008,+0000047,-0000099,+0004158,-0000810,+0000512,-0002343,15:05:18.468640
0.178689,+0000027,-0000027,-0000018,+0000071,-0000076,+0004155,-0000810,+0000512,-0002343,15:05:18.468640
0.179022,+0000027,-0000043,-0000010,+0000065,-0000087,+0004169,-0000816,+0000510,-0002336,15:05:18.468640
0.179355,+0000021,-0000039,-0000002,+0000076,-0000077,+0004153,-0000816,+0000510,-0002336,15:05:18.469647
0.179688,+0000006,-0000024,+0000000,+0000051,-0000067,+0004172,-0000816,+0000510,-0002336,15:05:18.469647
0.180021,+0000010,-0000014,-0000014,+0000059,-0000086,+0004154,-0000804,+0000516,-0002366,15:05:18.469647
0.180354,+0000016,-0000024,-0000013,+0000071,-0000088,+0004143,-0000804,+0000516,-0002366,15:05:18.469647
0.180687,+0000017,-0000032,-0000001,+0000070,-0000074,+0004151,-0000804,+0000516,-0002366,15:05:18.469647
0.181020,+0000019,-0000039,-0000013,+0000073,-0000092,+0004137,-0000806,+0000514,-0002317,15:05:18.469647
0.181353,+0000025,-0000034,-0000011,+0000068,-0000075,+0004146,-0000806,+0000514,-0002317,15:05:18.469647
0.181686,+0000004,+0000001,-0000005,+0000081,-0000087,+0004149,-0000806,+0000514,-0002317,15:05:18.469647
0.182019,+0000005,-0000016,-0000016,+0000095,-0000076,+0004127,-0000816,+0000514,-0002346,15:05:18.469647
0.182352,+0000003,-0000021,+0000001,+0000073,-0000074,+0004163,-0000816,+0000514,-0002346,15:05:18.469647
0.182685,+0000022,-0000035,-0000011,+0000050,-0000051,+0004164,-0000816,+0000514,-0002346,15:05:18.469647
0.183018,+0000019,-0000015,-0000005,+0000056,-0000090,+0004155,-0000798,+0000496,-0002363,15:05:18.469647
0.183351,+0000011,-0000015,-0000002,+0000071,-0000115,+0004172,-0000798,+0000496,-0002363,15:05:18.469647
0.183684,+0000005,-0000027,-0000013,+0000077,-0000072,+0004166,-0000798,+0000496,-0002363,15:05:18.469647
0.184017,+0000000,-0000005,-0000010,+0000078,-0000089,+0004158,-0000822,+0000512,-0002366,15:05:18.469647
0.184350,+0000017,-0000020,-0000002,+0000059,-0000089,+0004157,-0000822,+0000512,-0002366,15:05:18.469647
0.184683,+0000024,-0000038,-0000018,+0000068,-0000096,+0004145,-0000822,+0000512,-0002366,15:05:18.469647
0.185016,+0000030,-0000040,-0000018,+0000049,-0000096,+0004147,-0000808,+0000506,-0002342,15:05:18.469647
0.185349,+0000019,-0000021,+0000001,+0000065,-0000080,+0004161,-0000808,+0000506,-0002342,15:05:18.469647
0.185682,+0000014,-0000018,-0000018,+0000064,-0000093,+0004159,-0000808,+0000506,-0002342,15:05:18.469647
0.186015,-0000001,-0000008,-0000015,+0000057,-0000080,+0004150,-0000818,+0000510,-0002325,15:05:18.469647
0.186348,+0000014,-0000016,-0000013,+0000050,-0000084,+0004155,-0000818,+0000510,-0002325,15:05:18.469647
0.186681,+0000027,-0000035,-0000010,+0000067,-0000079,+0004162,-0000818,+0000510,-0002325,15:05:18.469647
0.187014,+0000009,-0000032,-0000010,+0000043,-0000081,+0004139,-0000798,+0000500,-0002358,15:05:18.469647
0.187347,+0000008,-0000022,-0000008,+0000059,-0000079,+0004138,-0000798,+0000500,-0002358,15:05:18.469647
0.187680,+0000008,-0000029,-0000003,+0000055,-0000093,+0004150,-0000798,+0000500,-0002358,15:05:18.469647
0.188013,+0000008,-0000012,-0000005,+0000043,-0000100,+0004153,-0000808,+0000508,-0002357,15:05:18.469647
0.188346,+0000014,-0000021,-0000002,+0000063,-0000096,+0004153,-0000808,+0000508,-0002357,15:05:18.469647
0.188679,+0000009,-0000037,-0000016,+0000054,-0000082,+0004155,-0000808,+0000508,-0002357,15:05:18.469647
0.189012,+0000017,-0000030,-0000008,+0000066,-0000088,+0004159,-0000814,+0000522,-0002330,15:05:18.470644
0.189345,+0000000,-0000030,-0000004,+0000067,-0000052,+0004155,-0000814,+0000522,-0002330,15:05:18.470644
0.189678,+0000014,-0000008,-0000008,+0000047,-0000084,+0004144,-0000814,+0000522,-0002330,15:05:18.470644
0.190011,+0000006,-0000010,-0000004,+0000066,-0000081,+0004154,-0000814,+0000490,-0002342,15:05:18.470644
0.190344,+0000005,-0000018,-0000011,+0000073,-0000081,+0004140,-0000814,+0000490,-0002342,15:05:18.470644
0.190677,+0000016,-0000037,-0000006,+0000066,-0000084,+0004137,-0000814,+0000490,-0002342,15:05:18.470644
0.191010,+0000027,-0000034,-0000019,+0000066,-0000096,+0004142,-0000812,+0000502,-0002328,15:05:18.470644
0.191343,+0000011,-0000022,-0000011,+0000081,-0000074,+0004152,-0000812,+0000502,-0002328,15:05:18.470644
0.191676,+0000002,+0000006,+0000007,+0000081,-0000086,+0004141,-0000812,+0000502,-0002328,15:05:18.470644
0.192009,+0000022,-0000029,-0000018,+0000066,-0000088,+0004139,-0000816,+0000510,-0002348,15:05:18.470644
0.192342,+0000024,-0000027,+0000001,+0000054,-0000092,+0004122,-0000816,+0000510,-0002348,15:05:18.470644
0.192677,+0000024,-0000031,-0000013,+0000072,-0000088,+0004135,-0000816,+0000510,-0002348,15:05:18.519528
0.193009,+0000019,-0000037,-0000008,+0000092,-0000096,+0004135,-0000798,+0000510,-0002328,15:05:18.519528
0.193347,+0000011,-0000018,-0000010,+0000063,-0000085,+0004139,-0000798,+0000510,-0002328,15:05:18.519528
0.193970,+0000009,-0000037,-0000005,+0000067,-0000088,+0004132,-0000798,+0000510,-0002328,15:05:18.519528
0.194177,+0000014,-0000012,-0000010,+0000066,-0000084,+0004152,-0000810,+0000516,-0002323,15:05:18.520524
0.194403,+0000014,-0000012,-0000010,+0000068,-0000112,+0004165,-0000810,+0000516,-0002323,15:05:18.520524
0.194677,+0000011,-0000029,-0000008,+0000041,-0000096,+0004136,-0000810,+0000516,-0002323,15:05:18.520524
0.195086,+0000003,-0000019,-0000008,+0000056,-0000102,+0004151,-0000790,+0000520,-0002336,15:05:18.521526
0.195333,+0000030,-0000026,-0000012,+0000058,-0000097,+0004150,-0000790,+0000520,-0002336,15:05:18.521526
0.195674,+0000003,-0000007,+0000003,+0000056,-0000091,+0004151,-0000790,+0000520,-0002336,15:05:18.521526
0.196012,+0000014,-0000025,-0000010,+0000061,-0000094,+0004146,-0000806,+0000520,-0002344,15:05:18.521526
0.196338,+0000019,-0000026,-0000006,+0000068,-0000098,+0004143,-0000806,+0000520,-0002344,15:05:18.521526
0.196671,+0000011,-0000021,-0000012,+0000054,-0000092,+0004158,-0000806,+0000520,-0002344,15:05:18.521526
0.197004,+0000011,-0000019,-0000006,+0000056,-0000083,+0004149,-0000806,+0000512,-0002322,15:05:18.521526
0.197337,+0000014,-0000023,-0000010,+0000066,-0000102,+0004161,-0000806,+0000512,-0002322,15:05:18.521526
0.197673,+0000003,-0000021,-0000011,+0000058,-0000095,+0004167,-0000806,+0000512,-0002322,15:05:18.521526
0.198003,+0000006,-0000012,-0000005,+0000062,-0000093,+0004161,-0000810,+0000504,-0002331,15:05:18.521526
0.198336,+0000016,-0000045,-0000008,+0000061,-0000098,+0004131,-0000810,+0000504,-0002331,15:05:18.521526
0.198669,+0000021,-0000026,-0000011,+0000043,-0000102,+0004142,-0000810,+0000504,-0002331,15:05:18.521526
0.199002,+0000011,-0000022,-0000010,+0000070,-0000072,+0004168,-0000810,+0000516,-0002324,15:05:18.521526
0.199335,+0000005,-0000024,-0000005,+0000073,-0000078,+0004148,-0000810,+0000516,-0002324,15:05:18.521526
0.199668,+0000011,-0000012,-0000015,+0000053,-0000102,+0004122,-0000810,+0000516,-0002324,15:05:18.521526
0.200001,+0000002,-0000030,-0000008,+0000059,-0000079,+0004161,-0000802,+0000520,-0002336,15:05:18.521526
0.200334,+0000003,-0000034,+0000003,+0000061,-0000075,+0004148,-0000802,+0000520,-0002336,15:05:18.521526
0.200668,+0000033,-0000026,-0000026,+0000062,-0000081,+0004136,-0000802,+0000520,-0002336,15:05:18.521526
0.201216,+0000012,-0000032,-0000001,+0000083,-0000093,+0004138,-0000810,+0000522,-0002330,15:05:18.521526
0.201499,-0000005,-0000005,-0000010,+0000061,-0000090,+0004146,-0000810,+0000522,-0002330,15:05:18.521526
0.201678,-0000005,-0000005,-0000008,+0000051,-0000100,+0004143,-0000810,+0000522,-0002330,15:05:18.521526
0.202001,+0000024,-0000024,-0000018,+0000063,-0000083,+0004130,-0000810,+0000522,-0002330,15:05:18.521526
0.202335,+0000017,-0000034,-0000005,+0000081,-0000090,+0004144,-0000810,+0000522,-0002330,15:05:18.521526
0.202665,+0000019,-0000018,-0000021,+0000067,-0000074,+0004137,-0000810,+0000522,-0002330,15:05:18.521526
0.202998,+0000008,-0000038,-0000016,+0000053,-0000087,+0004151,-0000798,+0000530,-0002358,15:05:18.521526
0.203331,+0000006,-0000013,+0000002,+0000059,-0000080,+0004147,-0000798,+0000530,-0002358,15:05:18.521526
0.203665,+0000017,-0000012,-0000008,+0000063,-0000055,+0004136,-0000798,+0000530,-0002358,15:05:18.521526
0.203998,+0000000,-0000007,-0000003,+0000057,-0000092,+0004158,-0000802,+0000512,-0002322,15:05:18.521526
0.204332,+0000042,-0000061,-0000018,+0000093,-0000083,+0004161,-0000802,+0000512,-0002322,15:05:18.521526
0.204664,+0000005,-0000032,-0000004,+0000056,-0000092,+0004158,-0000802,+0000512,-0002322,15:05:18.521526
0.204996,+0000014,-0000021,-0000010,+0000060,-0000090,+0004143,-0000808,+0000538,-0002369,15:05:18.521526
0.205329,-0000008,-0000013,+0000008,+0000068,-0000100,+0004162,-0000808,+0000538,-0002369,15:05:18.521526
0.205662,+0000011,-0000012,-0000021,+0000066,-0000080,+0004149,-0000808,+0000538,-0002369,15:05:18.521526
0.205995,+0000005,-0000019,-0000005,+0000063,-0000097,+0004151,-0000788,+0000518,-0002337,15:05:18.521526
0.206328,+0000028,-0000034,-0000010,+0000058,-0000072,+0004137,-0000788,+0000518,-0002337,15:05:18.521526
0.206661,+0000017,-0000048,-0000008,+0000053,-0000078,+0004134,-0000788,+0000518,-0002337,15:05:18.521526
0.206994,-0000009,-0000008,-0000002,+0000074,-0000088,+0004142,-0000804,+0000520,-0002336,15:05:18.521526
0.207327,+0000022,-0000023,-0000011,+0000068,-0000103,+0004133,-0000804,+0000520,-0002336,15:05:18.521526
0.207660,+0000005,-0000015,-0000010,+0000057,-0000092,+0004169,-0000804,+0000520,-0002336,15:05:18.521526
0.207993,+0000025,-0000029,-0000004,+0000066,-0000083,+0004175,-0000804,+0000524,-0002300,15:05:18.521526
0.208326,+0000016,-0000042,-0000020,+0000054,-0000095,+0004147,-0000804,+0000524,-0002300,15:05:18.521526
0.208659,+0000024,-0000024,-0000011,+0000064,-0000090,+0004159,-0000804,+0000524,-0002300,15:05:18.521526
0.208992,+0000005,+0000001,-0000004,+0000043,-0000093,+0004150,-0000810,+0000510,-0002332,15:05:18.522525
0.209325,+0000008,-0000027,-0000011,+0000046,-0000090,+0004141,-0000810,+0000510,-0002332,15:05:18.522525
0.209658,+0000002,-0000021,-0000003,+0000071,-0000074,+0004152,-0000810,+0000510,-0002332,15:05:18.522525
0.209991,+0000025,-0000029,-0000003,+0000077,-0000083,+0004145,-0000804,+0000512,-0002341,15:05:18.522525
0.210324,+0000028,-0000016,+0000006,+0000073,-0000082,+0004131,-0000804,+0000512,-0002341,15:05:18.522525
0.210657,+0000022,-0000031,-0000019,+0000073,-0000095,+0004157,-0000804,+0000512,-0002341,15:05:18.522525
0.210990,+0000003,-0000016,-0000002,+0000056,-0000084,+0004157,-0000802,+0000516,-0002311,15:05:18.522525
0.211323,+0000022,-0000018,-0000008,+0000063,-0000077,+0004156,-0000802,+0000516,-0002311,15:05:18.522525
0.211656,+0000002,-0000027,+0000011,+0000048,-0000087,+0004146,-0000802,+0000516,-0002311,15:05:18.522525
0.211989,+0000019,-0000032,-0000008,+0000045,-0000082,+0004166,-0000820,+0000518,-0002317,15:05:18.522525
0.212322,+0000013,-0000022,-0000008,+0000054,-0000091,+0004141,-0000820,+0000518,-0002317,15:05:18.522525
0.212655,+0000013,-0000024,-0000012,+0000069,-0000084,+0004146,-0000820,+0000518,-0002317,15:05:18.522525
0.212988,+0000014,-0000026,+0000000,+0000054,-0000076,+0004168,-0000806,+0000512,-0002330,15:05:18.522525
0.213321,+0000000,-0000007,-0000014,+0000070,-0000086,+0004149,-0000806,+0000512,-0002330,15:05:18.522525
0.213654,+0000006,-0000020,+0000006,+0000062,-0000102,+0004139,-0000806,+0000512,-0002330,15:05:18.522525
0.213987,+0000005,-0000043,-0000007,+0000068,-0000081,+0004146,-0000822,+0000520,-0002329,15:05:18.522525
0.214320,+0000027,-0000031,-0000016,+0000064,-0000085,+0004163,-0000822,+0000520,-0002329,15:05:18.522525
0.214653,+0000003,-0000013,+0000006,+0000073,-0000094,+0004156,-0000822,+0000520,-0002329,15:05:18.523524
0.214986,+0000014,-0000021,-0000008,+0000069,-0000092,+0004176,-0000810,+0000500,-0002359,15:05:18.523524
0.215319,+0000007,-0000010,-0000016,+0000065,-0000078,+0004160,-0000810,+0000500,-0002359,15:05:18.523524
0.215652,+0000018,-0000024,-0000013,+0000092,-0000070,+0004153,-0000810,+0000500,-0002359,15:05:18.523524
0.215985,+0000022,-0000031,-0000003,+0000094,-0000087,+0004153,-0000798,+0000508,-0002335,15:05:18.523524
0.216318,+0000016,-0000019,-0000003,+0000082,-0000083,+0004157,-0000798,+0000508,-0002335,15:05:18.523524
0.216651,+0000016,-0000032,-0000016,+0000043,-0000104,+0004176,-0000798,+0000508,-0002335,15:05:18.523524
0.216984,+0000000,-0000016,-0000005,+0000067,-0000084,+0004170,-0000814,+0000528,-0002332,15:05:18.523524
0.217317,+0000000,+0000006,-0000004,+0000064,-0000102,+0004138,-0000814,+0000528,-0002332,15:05:18.523524
0.217650,+0000019,-0000032,-0000007,+0000071,-0000080,+0004161,-0000814,+0000528,-0002332,15:05:18.523524
0.217983,+0000016,-0000037,-0000018,+0000053,-0000068,+0004152,-0000814,+0000506,-0002335,15:05:18.523524
0.218316,+0000024,-0000026,+0000000,+0000062,-0000066,+0004157,-0000814,+0000506,-0002335,15:05:18.523524
0.218649,+0000017,-0000026,-0000027,+0000078,-0000092,+0004149,-0000814,+0000506,-0002335,15:05:18.525523
0.218982,+0000016,-0000010,+0000009,+0000066,-0000084,+0004152,-0000828,+0000532,-0002318,15:05:18.525523
0.219315,+0000009,-0000023,-0000010,+0000062,-0000104,+0004162,-0000828,+0000532,-0002318,15:05:18.525523
0.219648,+0000022,-0000023,-0000005,+0000058,-0000070,+0004133,-0000828,+0000532,-0002318,15:05:18.525523
0.219981,+0000014,-0000046,-0000002,+0000059,-0000073,+0004138,-0000792,+0000528,-0002335,15:05:18.525523
0.220314,+0000011,-0000029,-0000011,+0000072,-0000088,+0004142,-0000792,+0000528,-0002335,15:05:18.525523
0.220647,-0000005,-0000002,+0000009,+0000064,-0000082,+0004138,-0000792,+0000528,-0002335,15:05:18.525523
0.220980,+0000022,-0000028,-0000019,+0000067,-0000084,+0004156,-0000792,+0000512,-0002342,15:05:18.525523
0.221313,-0000001,-0000013,+0000000,+0000046,-0000078,+0004143,-0000792,+0000512,-0002342,15:05:18.525523
0.221646,+0000021,-0000031,+0000003,+0000058,-0000054,+0004135,-0000792,+0000512,-0002342,15:05:18.525523
0.221979,+0000025,-0000037,-0000013,+0000068,-0000079,+0004139,-0000804,+0000516,-0002364,15:05:18.525523
0.222312,+0000014,-0000011,-0000015,+0000073,-0000095,+0004164,-0000804,+0000516,-0002364,15:05:18.525523
0.222645,-0000005,-0000021,-0000012,+0000055,-0000085,+0004156,-0000804,+0000516,-0002364,15:05:18.525523
0.222978,+0000014,-0000010,+0000000,+0000074,-0000080,+0004143,-0000802,+0000510,-0002346,15:05:18.525523
0.223311,+0000005,-0000015,-0000008,+0000055,-0000083,+0004132,-0000802,+0000510,-0002346,15:05:18.525523
0.223644,+0000014,-0000048,-0000018,+0000050,-0000093,+0004143,-0000802,+0000510,-0002346,15:05:18.525523
0.223977,+0000014,-0000035,-0000018,+0000050,-0000117,+0004155,-0000816,+0000520,-0002339,15:05:18.525523
0.224310,+0000016,-0000015,-0000002,+0000060,-0000096,+0004163,-0000816,+0000520,-0002339,15:05:18.525523
0.224643,+0000002,-0000011,-0000010,+0000071,-0000078,+0004141,-0000816,+0000520,-0002339,15:05:18.525523
0.224976,+0000007,-0000005,-0000003,+0000061,-0000073,+0004154,-0000812,+0000516,-0002322,15:05:18.525523
0.225309,+0000022,-0000024,-0000019,+0000071,-0000093,+0004159,-0000812,+0000516,-0002322,15:05:18.525523
0.225642,+0000008,-0000024,-0000019,+0000071,-0000090,+0004158,-0000812,+0000516,-0002322,15:05:18.525523
0.225975,+0000000,-0000021,-0000008,+0000059,-0000074,+0004129,-0000816,+0000518,-0002350,15:05:18.525523
0.226308,+0000027,-0000029,-0000015,+0000060,-0000074,+0004155,-0000816,+0000518,-0002350,15:05:18.525523
0.226641,+0000016,-0000010,-0000015,+0000074,-0000084,+0004150,-0000816,+0000518,-0002350,15:05:18.525523
0.226974,+0000005,-0000021,-0000014,+0000066,-0000090,+0004133,-0000810,+0000528,-0002344,15:05:18.525523
0.227307,+0000011,-0000013,-0000005,+0000067,-0000081,+0004145,-0000810,+0000528,-0002344,15:05:18.525523
0.227640,+0000005,-0000035,-0000018,+0000048,-0000093,+0004151,-0000810,+0000528,-0002344,15:05:18.525523
0.227973,+0000018,-0000042,-0000024,+0000053,-0000077,+0004143,-0000800,+0000530,-0002369,15:05:18.525523
0.228306,+0000019,-0000018,-0000005,+0000067,-0000087,+0004143,-0000800,+0000530,-0002369,15:05:18.525523
0.228639,+0000005,-0000024,-0000003,+0000075,-0000085,+0004158,-0000800,+0000530,-0002369,15:05:18.525523
0.228972,-0000008,-0000023,-0000008,+0000063,-0000095,+0004152,-0000812,+0000508,-0002368,15:05:18.525523
0.229305,+0000015,-0000024,-0000014,+0000065,-0000110,+0004157,-0000812,+0000508,-0002368,15:05:18.525523
0.229638,+0000008,-0000026,+0000000,+0000060,-0000095,+0004139,-0000812,+0000508,-0002368,15:05:18.525523
0.229971,+0000025,-0000037,-0000008,+0000062,-0000096,+0004141,-0000796,+0000524,-0002341,15:05:18.531526
0.230304,+0000021,-0000023,-0000014,+0000055,-0000082,+0004162,-0000796,+0000524,-0002341,15:05:18.531526
0.230637,+0000007,-0000029,-0000014,+0000071,-0000102,+0004170,-0000796,+0000524,-0002341,15:05:18.531526
0.230970,+0000010,-0000010,-0000002,+0000077,-0000083,+0004172,-0000812,+0000500,-0002367,15:05:18.531526
0.231303,+0000014,-0000023,-0000005,+0000070,-0000093,+0004148,-0000812,+0000500,-0002367,15:05:18.531526
0.231636,+0000022,-0000040,-0000018,+0000081,-0000099,+0004176,-0000812,+0000500,-0002367,15:05:18.531526
0.231969,+0000013,-0000027,-0000005,+0000062,-0000098,+0004170,-0000810,+0000508,-0002356,15:05:18.531526
0.232302,+0000019,-0000032,-0000015,+0000079,-0000093,+0004159,-0000810,+0000508,-0002356,15:05:18.531526
0.232635,+0000011,+0000006,-0000016,+0000062,-0000105,+0004164,-0000810,+0000508,-0002356,15:05:18.531526
0.232968,+0000002,-0000010,+0000011,+0000067,-0000085,+0004157,-0000804,+0000514,-0002363,15:05:18.531526
0.233301,+0000016,-0000034,-0000013,+0000064,-0000104,+0004144,-0000804,+0000514,-0002363,15:05:18.531526
0.233634,+0000025,-0000043,-0000013,+0000070,-0000064,+0004162,-0000804,+0000514,-0002363,15:05:18.531526
0.233967,+0000017,-0000042,-0000016,+0000068,-0000089,+0004174,-0000810,+0000522,-0002363,15:05:18.531526
0.234300,+0000009,-0000016,-0000017,+0000052,-0000071,+0004141,-0000810,+0000522,-0002363,15:05:18.531526
0.234633,+0000003,-0000018,+0000005,+0000062,-0000096,+0004151,-0000810,+0000522,-0002363,15:05:18.531526
0.234966,+0000003,-0000021,-0000013,+0000064,-0000107,+0004139,-0000804,+0000514,-0002335,15:05:18.531526
0.235299,+0000029,-0000031,+0000000,+0000065,-0000109,+0004146,-0000804,+0000514,-0002335,15:05:18.531526
0.235632,+0000020,-0000034,-0000013,+0000066,-0000083,+0004145,-0000804,+0000514,-0002335,15:05:18.531526
0.235965,+0000028,-0000010,-0000010,+0000073,-0000093,+0004142,-0000808,+0000488,-0002360,15:05:18.531526
0.236298,+0000002,-0000016,-0000015,+0000069,-0000098,+0004152,-0000808,+0000488,-0002360,15:05:18.531526
0.236631,+0000024,-0000005,-0000005,+0000072,-0000087,+0004153,-0000808,+0000488,-0002360,15:05:18.531526
0.236964,-0000006,-0000018,-0000013,+0000048,-0000090,+0004142,-0000812,+0000508,-0002356,15:05:18.531526
0.237297,+0000033,-0000037,-0000013,+0000067,-0000085,+0004142,-0000812,+0000508,-0002356,15:05:18.531526
0.237630,+0000024,-0000021,-0000008,+0000068,-0000094,+0004154,-0000812,+0000508,-0002356,15:05:18.531526
0.237963,+0000020,-0000016,-0000011,+0000063,-0000081,+0004158,-0000798,+0000500,-0002348,15:05:18.531526
0.238296,+0000005,-0000019,-0000004,+0000062,-0000069,+0004145,-0000798,+0000500,-0002348,15:05:18.531526
0.238629,-0000005,-0000019,-0000010,+0000055,-0000100,+0004158,-0000798,+0000500,-0002348,15:05:18.531526
0.238962,+0000010,-0000004,-0000004,+0000074,-0000083,+0004143,-0000810,+0000504,-0002360,15:05:18.535525
0.239295,+0000011,-0000045,-0000018,+0000068,-0000067,+0004144,-0000810,+0000504,-0002360,15:05:18.535525
0.239628,+0000014,-0000027,+0000004,+0000066,-0000098,+0004149,-0000810,+0000504,-0002360,15:05:18.535525
0.239961,+0000010,-0000039,-0000012,+0000053,-0000089,+0004153,-0000804,+0000506,-0002360,15:05:18.535525
0.240294,+0000017,-0000004,-0000005,+0000049,-0000101,+0004160,-0000804,+0000506,-0002360,15:05:18.535525
0.240627,-0000005,-0000020,-0000015,+0000087,-0000106,+0004159,-0000804,+0000506,-0002360,15:05:18.535525
0.240960,+0000017,-0000015,-0000013,+0000069,-0000095,+0004151,-0000786,+0000506,-0002385,15:05:18.535525
0.241293,+0000025,-0000029,-0000008,+0000059,-0000077,+0004160,-0000786,+0000506,-0002385,15:05:18.535525
0.241626,+0000020,-0000029,-0000013,+0000062,-0000089,+0004147,-0000786,+0000506,-0002385,15:05:18.535525
0.241959,+0000016,-0000022,-0000007,+0000047,-0000088,+0004139,-0000808,+0000518,-0002361,15:05:18.535525
0.242292,+0000002,-0000012,-0000011,+0000078,-0000097,+0004125,-0000808,+0000518,-0002361,15:05:18.535525
0.242626,+0000010,-0000018,-0000006,+0000075,-0000095,+0004147,-0000808,+0000518,-0002361,15:05:18.568478
0.242960,+0000014,-0000015,-0000008,+0000046,-0000089,+0004151,-0000812,+0000514,-0002349,15:05:18.568478
0.243294,+0000014,-0000037,+0000000,+0000038,-0000080,+0004148,-0000812,+0000514,-0002349,15:05:18.568478
0.243956,+0000011,-0000014,-0000013,+0000068,-0000088,+0004144,-0000812,+0000514,-0002349,15:05:18.568478
0.244344,+0000009,-0000010,-0000015,+0000043,-0000098,+0004137,-0000818,+0000518,-0002376,15:05:18.568478
0.244663,+0000014,-0000015,-0000002,+0000044,-0000109,+0004148,-0000818,+0000518,-0002376,15:05:18.568478
0.244959,+0000022,-0000042,-0000004,+0000055,-0000077,+0004146,-0000818,+0000518,-0002376,15:05:18.568478
0.245291,+0000007,-0000026,-0000011,+0000055,-0000085,+0004140,-0000820,+0000524,-0002366,15:05:18.568478
0.245624,+0000016,-0000012,-0000008,+0000070,-0000088,+0004166,-0000820,+0000524,-0002366,15:05:18.568478
0.245956,+0000006,-0000032,-0000016,+0000077,-0000106,+0004148,-0000820,+0000524,-0002366,15:05:18.568478
0.246288,+0000000,+0000009,-0000007,+0000066,-0000079,+0004164,-0000820,+0000514,-0002349,15:05:18.568478
0.246732,+0000019,-0000018,-0000005,+0000049,-0000073,+0004155,-0000820,+0000514,-0002349,15:05:18.568478
0.246954,+0000000,-0000026,-0000014,+0000060,-0000078,+0004145,-0000820,+0000514,-0002349,15:05:18.568478
0.247287,+0000033,-0000019,-0000018,+0000057,-0000093,+0004127,-0000810,+0000520,-0002349,15:05:18.568478
0.247620,+0000002,-0000034,+0000001,+0000062,-0000085,+0004163,-0000810,+0000520,-0002349,15:05:18.568478
0.247953,+0000006,-0000019,-0000008,+0000061,-0000100,+0004170,-0000810,+0000520,-0002349,15:05:18.568478
0.248407,+0000020,-0000013,-0000007,+0000065,-0000084,+0004146,-0000806,+0000516,-0002355,15:05:18.568478
0.248627,+0000008,-0000029,-0000008,+0000045,-0000106,+0004157,-0000806,+0000516,-0002355,15:05:18.568478
0.248962,+0000005,-0000012,+0000006,+0000059,-0000084,+0004146,-0000806,+0000516,-0002355,15:05:18.568478
0.249289,+0000019,-0000040,-0000018,+0000065,-0000101,+0004164,-0000816,+0000506,-0002342,15:05:18.568478
0.249622,+0000016,-0000003,+0000005,+0000077,-0000087,+0004144,-0000816,+0000506,-0002342,15:05:18.568478
0.249951,+0000008,-0000013,-0000019,+0000071,-0000085,+0004138,-0000816,+0000506,-0002342,15:05:18.568478
0.250286,+0000002,-0000007,-0000004,+0000084,-0000070,+0004155,-0000810,+0000508,-0002348,15:05:18.568478
0.250617,+0000002,-0000014,+0000001,+0000086,-0000087,+0004154,-0000810,+0000508,-0002348,15:05:18.568478
0.250952,+0000022,-0000030,-0000006,+0000074,-0000104,+0004146,-0000810,+0000508,-0002348,15:05:18.568478
0.251283,+0000019,-0000016,-0000004,+0000067,-0000088,+0004163,-0000790,+0000536,-0002342,15:05:18.568478
0.251618,+0000013,-0000029,-0000008,+0000059,-0000072,+0004159,-0000790,+0000536,-0002342,15:05:18.568478
0.251950,-0000001,-0000015,-0000003,+0000061,-0000074,+0004153,-0000790,+0000536,-0002342,15:05:18.568478
0.252283,+0000013,-0000013,-0000004,+0000059,-0000084,+0004172,-0000804,+0000526,-0002358,15:05:18.568478
0.252617,+0000013,-0000020,-0000002,+0000060,-0000080,+0004145,-0000804,+0000526,-0002358,15:05:18.568478
0.252948,+0000009,-0000031,-0000005,+0000056,-0000064,+0004122,-0000804,+0000526,-0002358,15:05:18.568478
0.253281,+0000010,-0000029,-0000012,+0000052,-0000086,+0004166,-0000804,+0000514,-0002370,15:05:18.568478
0.253614,+0000013,-0000028,-0000016,+0000057,-0000069,+0004156,-0000804,+0000514,-0002370,15:05:18.568478
0.253947,+0000013,-0000014,-0000010,+0000045,-0000100,+0004167,-0000804,+0000514,-0002370,15:05:18.568478
0.254280,+0000005,-0000007,-0000010,+0000062,-0000092,+0004139,-0000806,+0000512,-0002373,15:05:18.568478
0.254613,+0000016,-0000023,-0000010,+0000062,-0000082,+0004171,-0000806,+0000512,-0002373,15:05:18.568478
0.254946,+0000022,-0000034,-0000007,+0000071,-0000090,+0004156,-0000806,+0000512,-0002373,15:05:18.568478
0.255279,+0000014,-0000027,-0000006,+0000077,-0000079,+0004136,-0000802,+0000516,-0002354,15:05:18.568478
0.255612,+0000013,-0000030,-0000010,+0000066,-0000077,+0004116,-0000802,+0000516,-0002354,15:05:18.568478
0.255945,+0000011,-0000002,-0000008,+0000065,-0000087,+0004146,-0000802,+0000516,-0002354,15:05:18.568478
0.256278,+0000014,-0000016,-0000013,+0000062,-0000091,+0004169,-0000806,+0000520,-0002349,15:05:18.568478
0.256611,+0000001,-0000013,+0000000,+0000042,-0000085,+0004152,-0000806,+0000520,-0002349,15:05:18.568478
0.256944,+0000019,-0000035,-0000011,+0000053,-0000076,+0004165,-0000806,+0000520,-0002349,15:05:18.568478
0.257278,+0000017,-0000030,-0000013,+0000047,-0000090,+0004148,-0000826,+0000522,-0002358,15:05:18.568478
0.257610,+0000009,-0000034,-0000003,+0000075,-0000094,+0004143,-0000826,+0000522,-0002358,15:05:18.568478
0.257943,+0000014,-0000022,-0000017,+0000068,-0000090,+0004156,-0000826,+0000522,-0002358,15:05:18.568478
0.258278,+0000002,-0000020,-0000007,+0000063,-0000090,+0004143,-0000822,+0000512,-0002356,15:05:18.568478
0.258609,+0000024,-0000029,-0000011,+0000056,-0000087,+0004163,-0000822,+0000512,-0002356,15:05:18.568478
0.258942,+0000013,-0000039,+0000007,+0000065,-0000102,+0004171,-0000822,+0000512,-0002356,15:05:18.568478
0.259278,+0000033,-0000048,-0000015,+0000078,-0000104,+0004156,-0000818,+0000520,-0002350,15:05:18.568478
0.259608,+0000009,-0000021,-0000002,+0000073,-0000090,+0004158,-0000818,+0000520,-0002350,15:05:18.568478
0.259941,-0000008,-0000012,+0000006,+0000057,-0000067,+0004170,-0000818,+0000520,-0002350,15:05:18.568478
0.260279,+0000009,-0000018,-0000011,+0000035,-0000078,+0004158,-0000826,+0000510,-0002362,15:05:18.568478
0.260607,+0000000,-0000022,-0000005,+0000056,-0000073,+0004163,-0000826,+0000510,-0002362,15:05:18.568478
0.260940,+0000030,-0000042,-0000018,+0000068,-0000071,+0004156,-0000826,+0000510,-0002362,15:05:18.568478
0.261278,+0000019,-0000040,+0000000,+0000057,-0000065,+0004165,-0000812,+0000518,-0002375,15:05:18.568478
0.261606,-0000007,+0000004,+0000005,+0000050,-0000079,+0004132,-0000812,+0000518,-0002375,15:05:18.568478
0.261939,+0000011,-0000010,-0000010,+0000061,-0000093,+0004139,-0000812,+0000518,-0002375,15:05:18.568478
0.262277,+0000013,-0000026,-0000002,+0000059,-0000086,+0004133,-0000820,+0000524,-0002361,15:05:18.568478
0.262605,+0000009,-0000034,-0000008,+0000057,-0000098,+0004150,-0000820,+0000524,-0002361,15:05:18.568478
0.262938,+0000023,-0000035,-0000006,+0000070,-0000069,+0004147,-0000820,+0000524,-0002361,15:05:18.568478
0.263276,+0000005,-0000029,+0000000,+0000044,-0000084,+0004158,-0000810,+0000510,-0002366,15:05:18.568478
0.263604,+0000010,-0000021,-0000007,+0000069,-0000105,+0004136,-0000810,+0000510,-0002366,15:05:18.568478
0.263937,+0000005,-0000005,-0000008,+0000062,-0000091,+0004140,-0000810,+0000510,-0002366,15:05:18.568478
0.264275,+0000021,-0000018,-0000011,+0000080,-0000093,+0004148,-0000806,+0000524,-0002348,15:05:18.568478
0.264603,+0000006,-0000035,-0000005,+0000052,-0000094,+0004167,-0000806,+0000524,-0002348,15:05:18.568478
0.264936,+0000014,-0000023,-0000008,+0000073,-0000086,+0004155,-0000806,+0000524,-0002348,15:05:18.568478
0.265274,+0000014,-0000013,-0000008,+0000078,-0000102,+0004161,-0000812,+0000536,-0002360,15:05:18.568478
0.265602,+0000022,-0000034,-0000010,+0000070,-0000093,+0004146,-0000812,+0000536,-0002360,15:05:18.568478
0.265935,+0000000,-0000001,+0000003,+0000056,-0000096,+0004161,-0000812,+0000536,-0002360,15:05:18.568478
0.266271,+0000019,-0000016,-0000015,+0000070,-0000090,+0004142,-0000816,+0000500,-0002350,15:05:18.568478
0.266601,+0000016,-0000032,-0000005,+0000064,-0000097,+0004164,-0000816,+0000500,-0002350,15:05:18.568478
0.266934,+0000019,-0000029,-0000016,+0000063,-0000069,+0004139,-0000816,+0000500,-0002350,15:05:18.568478
0.267271,+0000014,-0000018,+0000005,+0000056,-0000068,+0004144,-0000812,+0000490,-0002368,15:05:18.568478
0.267600,+0000013,-0000021,-0000027,+0000069,-0000092,+0004145,-0000812,+0000490,-0002368,15:05:18.568478
0.267933,+0000006,-0000016,-0000001,+0000063,-0000097,+0004149,-0000812,+0000490,-0002368,15:05:18.568478
0.268270,+0000005,-0000024,+0000007,+0000068,-0000075,+0004141,-0000808,+0000500,-0002344,15:05:18.568478
0.268599,+0000015,-0000031,-0000013,+0000063,-0000081,+0004161,-0000808,+0000500,-0002344,15:05:18.568478
0.268932,+0000018,-0000037,-0000018,+0000064,-0000093,+0004142,-0000808,+0000500,-0002344,15:05:18.568478
0.269270,+0000028,-0000013,+0000000,+0000057,-0000086,+0004138,-0000816,+0000528,-0002352,15:05:18.568478
0.269598,+0000006,-0000016,-0000007,+0000067,-0000066,+0004138,-0000816,+0000528,-0002352,15:05:18.568478
0.269931,+0000005,-0000016,-0000010,+0000075,-0000074,+0004153,-0000816,+0000528,-0002352,15:05:18.568478
0.270268,+0000019,-0000013,-0000001,+0000064,-0000092,+0004155,-0000812,+0000508,-0002364,15:05:18.568478
0.270597,+0000009,-0000031,-0000016,+0000076,-0000108,+0004151,-0000812,+0000508,-0002364,15:05:18.568478
0.270930,+0000022,-0000017,-0000008,+0000060,-0000092,+0004146,-0000812,+0000508,-0002364,15:05:18.568478
0.271267,+0000021,-0000034,-0000011,+0000068,-0000082,+0004135,-0000818,+0000526,-0002380,15:05:18.568478
0.271596,+0000006,-0000018,-0000015,+0000059,-0000089,+0004173,-0000818,+0000526,-0002380,15:05:18.568478
0.271929,+0000000,-0000013,-0000008,+0000065,-0000081,+0004140,-0000818,+0000526,-0002380,15:05:18.568478
0.272262,+0000017,-0000032,-0000010,+0000056,-0000082,+0004162,-0000808,+0000512,-0002365,15:05:18.568478
0.272595,+0000019,-0000043,-0000007,+0000045,-0000096,+0004166,-0000808,+0000512,-0002365,15:05:18.568478
0.272928,+0000030,-0000035,-0000008,+0000059,-0000084,+0004172,-0000808,+0000512,-0002365,15:05:18.568478
0.273262,+0000003,-0000021,-0000008,+0000056,-0000087,+0004145,-0000808,+0000508,-0002370,15:05:18.568478
0.273594,-0000008,+0000004,+0000004,+0000057,-0000099,+0004144,-0000808,+0000508,-0002370,15:05:18.568478
0.273927,+0000014,-0000008,-0000008,+0000042,-0000078,+0004148,-0000808,+0000508,-0002370,15:05:18.568478
0.274262,+0000016,-0000027,-0000003,+0000041,-0000090,+0004140,-0000804,+0000522,-0002379,15:05:18.568478
0.274593,+0000020,-0000028,-0000013,+0000053,-0000079,+0004147,-0000804,+0000522,-0002379,15:05:18.568478
0.274926,+0000014,-0000040,-0000018,+0000058,-0000087,+0004145,-0000804,+0000522,-0002379,15:05:18.568478
0.275263,+0000011,-0000005,-0000002,+0000051,-0000096,+0004155,-0000814,+0000506,-0002367,15:05:18.568478
0.275592,+0000007,-0000019,-0000004,+0000058,-0000103,+0004151,-0000814,+0000506,-0002367,15:05:18.568478
0.275925,+0000017,-0000037,-0000018,+0000056,-0000075,+0004168,-0000814,+0000506,-0002367,15:05:18.568478
0.276262,+0000027,-0000024,+0000001,+0000063,-0000081,+0004139,-0000806,+0000520,-0002370,15:05:18.568478
0.276591,+0000014,-0000034,-0000013,+0000063,-0000097,+0004164,-0000806,+0000520,-0002370,15:05:18.568478
0.276924,+0000027,-0000012,-0000002,+0000049,-0000091,+0004165,-0000806,+0000520,-0002370,15:05:18.568478
0.277261,+0000010,-0000014,-0000007,+0000059,-0000090,+0004149,-0000810,+0000502,-0002364,15:05:18.568478
0.277590,+0000016,-0000018,-0000015,+0000049,-0000068,+0004140,-0000810,+0000502,-0002364,15:05:18.568478
0.277923,+0000003,-0000018,-0000002,+0000055,-0000087,+0004158,-0000810,+0000502,-0002364,15:05:18.568478
0.278269,+0000025,-0000042,-0000015,+0000064,-0000092,+0004159,-0000820,+0000516,-0002344,15:05:18.568478
0.278589,+0000027,+0000000,-0000016,+0000069,-0000075,+0004168,-0000820,+0000516,-0002344,15:05:18.568478
0.278922,+0000013,-0000024,-0000014,+0000057,-0000061,+0004163,-0000820,+0000516,-0002344,15:05:18.568478
0.279268,+0000005,-0000010,+0000001,+0000072,-0000075,+0004149,-0000814,+0000498,-0002352,15:05:18.568478
0.279588,+0000005,-0000010,-0000020,+0000063,-0000077,+0004132,-0000814,+0000498,-0002352,15:05:18.568478
0.279921,+0000021,-0000030,-0000005,+0000074,-0000087,+0004153,-0000814,+0000498,-0002352,15:05:18.568478
0.280267,+0000006,-0000037,-0000003,+0000065,-0000086,+0004147,-0000822,+0000516,-0002356,15:05:18.568478
0.280587,+0000011,-0000021,-0000010,+0000060,-0000086,+0004157,-0000822,+0000516,-0002356,15:05:18.568478
0.280920,+0000011,-0000019,-0000017,+0000060,-0000085,+0004161,-0000822,+0000516,-0002356,15:05:18.568478
0.281266,-0000001,-0000009,-0000005,+0000083,-0000095,+0004166,-0000820,+0000506,-0002349,15:05:18.568478
0.281586,+0000013,-0000012,-0000003,+0000052,-0000088,+0004165,-0000820,+0000506,-0002349,15:05:18.568478
0.281919,+0000033,-0000040,-0000007,+0000053,-0000085,+0004149,-0000820,+0000506,-0002349,15:05:18.568478
0.282264,+0000030,-0000040,-0000013,+0000056,-0000078,+0004144,-0000820,+0000520,-0002324,15:05:18.568478
0.282585,+0000008,-0000027,+0000006,+0000054,-0000072,+0004153,-0000820,+0000520,-0002324,15:05:18.568478
0.282918,+0000014,-0000021,-0000019,+0000062,-0000087,+0004134,-0000820,+0000520,-0002324,15:05:18.568478
0.283251,+0000005,-0000008,-0000013,+0000050,-0000108,+0004142,-0000818,+0000498,-0002366,15:05:18.568478
0.283584,+0000003,-0000005,+0000001,+0000070,-0000105,+0004148,-0000818,+0000498,-0002366,15:05:18.568478
0.283917,+0000009,-0000013,-0000005,+0000068,-0000072,+0004155,-0000818,+0000498,-0002366,15:05:18.568478
0.284250,+0000007,-0000032,-0000008,+0000061,-0000084,+0004154,-0000812,+0000502,-0002348,15:05:18.568478
0.284583,+0000017,-0000036,-0000008,+0000060,-0000081,+0004152,-0000812,+0000502,-0002348,15:05:18.568478
0.284916,+0000022,-0000035,-0000016,+0000066,-0000093,+0004159,-0000812,+0000502,-0002348,15:05:18.568478
0.285249,+0000005,-0000018,-0000007,+0000061,-0000092,+0004160,-0000816,+0000496,-0002328,15:05:18.568478
0.285582,+0000008,-0000008,-0000016,+0000058,-0000077,+0004146,-0000816,+0000496,-0002328,15:05:18.568478
0.285915,+0000024,-0000021,-0000011,+0000043,-0000090,+0004160,-0000816,+0000496,-0002328,15:05:18.568478
0.286248,+0000009,-0000029,+0000000,+0000050,-0000095,+0004150,-0000818,+0000522,-0002360,15:05:18.568478
0.286581,+0000033,-0000032,-0000007,+0000053,-0000080,+0004147,-0000818,+0000522,-0002360,15:05:18.568478
0.286914,+0000009,-0000035,-0000024,+0000057,-0000096,+0004153,-0000818,+0000522,-0002360,15:05:18.568478
0.287247,-0000010,-0000005,-0000014,+0000056,-0000095,+0004142,-0000810,+0000506,-0002344,15:05:18.568478
0.287580,+0000011,-0000008,+0000005,+0000071,-0000080,+0004138,-0000810,+0000506,-0002344,15:05:18.568478
0.287913,+0000014,-0000040,-0000016,+0000065,-0000070,+0004135,-0000810,+0000506,-0002344,15:05:18.568478
0.288246,+0000027,-0000018,+0000006,+0000070,-0000086,+0004146,-0000802,+0000516,-0002334,15:05:18.568478
0.288579,+0000016,-0000048,-0000021,+0000039,-0000118,+0004148,-0000802,+0000516,-0002334,15:05:18.568478
0.288912,+0000008,-0000019,-0000019,+0000043,-0000092,+0004140,-0000802,+0000516,-0002334,15:05:18.568478
0.289245,+0000004,-0000008,+0000005,+0000058,-0000094,+0004164,-0000796,+0000520,-0002366,15:05:18.568478
0.289578,+0000033,-0000024,-0000017,+0000062,-0000077,+0004147,-0000796,+0000520,-0002366,15:05:18.568478
0.289911,+0000009,-0000029,-0000007,+0000069,-0000092,+0004128,-0000796,+0000520,-0002366,15:05:18.568478
0.290244,+0000014,-0000031,-0000010,+0000068,-0000086,+0004148,-0000808,+0000526,-0002363,15:05:18.568478
0.290577,+0000016,-0000021,-0000010,+0000051,-0000110,+0004167,-0000808,+0000526,-0002363,15:05:18.568478
0.290910,+0000008,-0000016,-0000007,+0000065,-0000092,+0004175,-0000808,+0000526,-0002363,15:05:18.568478
0.291243,+0000008,-0000007,-0000007,+0000064,-0000079,+0004152,-0000796,+0000524,-0002349,15:05:18.568478
0.291576,+0000003,-0000032,-0000005,+0000058,-0000095,+0004169,-0000796,+0000524,-0002349,15:05:18.568478
0.291909,+0000030,-0000033,-0000013,+0000059,-0000087,+0004147,-0000796,+0000524,-0002349,15:05:18.568478
0.292242,+0000019,-0000023,-0000011,+0000069,-0000073,+0004145,-0000802,+0000520,-0002362,15:05:18.568478
0.292576,+0000014,-0000031,-0000013,+0000048,-0000080,+0004140,-0000802,+0000520,-0002362,15:05:18.623685
0.292909,+0000010,-0000019,-0000008,+0000072,-0000076,+0004137,-0000802,+0000520,-0002362,15:05:18.623685
0.293244,+0000002,+0000001,-0000005,+0000059,-0000074,+0004155,-0000802,+0000522,-0002347,15:05:18.623685
0.293957,+0000002,-0000008,-0000006,+0000067,-0000097,+0004144,-0000802,+0000522,-0002347,15:05:18.623685
0.294364,+0000008,-0000005,-0000007,+0000080,-0000083,+0004155,-0000802,+0000522,-0002347,15:05:18.623685
0.294577,+0000008,-0000018,-0000015,+0000080,-0000094,+0004150,-0000796,+0000520,-0002346,15:05:18.623685
0.295008,+0000016,-0000029,-0000010,+0000060,-0000101,+0004151,-0000796,+0000520,-0002346,15:05:18.623685
0.295240,+0000014,-0000037,-0000010,+0000060,-0000101,+0004140,-0000796,+0000520,-0002346,15:05:18.623685
0.295681,+0000017,-0000029,-0000024,+0000062,-0000093,+0004144,-0000808,+0000518,-0002362,15:05:18.623685
0.295915,+0000011,-0000012,+0000006,+0000070,-0000092,+0004139,-0000808,+0000518,-0002362,15:05:18.623685
0.296238,-0000005,-0000018,-0000003,+0000058,-0000080,+0004141,-0000808,+0000518,-0002362,15:05:18.623685
0.296571,+0000021,-0000028,-0000011,+0000073,-0000096,+0004167,-0000816,+0000522,-0002345,15:05:18.623685
0.296904,+0000003,-0000029,-0000014,+0000063,-0000103,+0004171,-0000816,+0000522,-0002345,15:05:18.623685
0.297237,+0000005,+0000006,+0000000,+0000091,-0000109,+0004158,-0000816,+0000522,-0002345,15:05:18.623685
0.297571,+0000011,-0000021,-0000010,+0000082,-0000087,+0004164,-0000806,+0000510,-0002349,15:05:18.623685
0.297903,+0000008,-0000036,-0000019,+0000049,-0000090,+0004156,-0000806,+0000510,-0002349,15:05:18.623685
0.298236,+0000019,-0000028,-0000005,+0000056,-0000093,+0004148,-0000806,+0000510,-0002349,15:05:18.623685
0.298653,+0000002,-0000027,-0000008,+0000061,-0000119,+0004134,-0000822,+0000524,-0002357,15:05:18.623685
0.298926,+0000002,-0000018,+0000001,+0000073,-0000074,+0004137,-0000822,+0000524,-0002357,15:05:18.623685
0.299238,+0000022,-0000006,-0000013,+0000076,-0000065,+0004136,-0000822,+0000524,-0002357,15:05:18.623685
0.299571,+0000007,-0000034,-0000007,+0000043,-0000076,+0004160,-0000808,+0000514,-0002349,15:05:18.623685
0.299902,+0000025,-0000032,-0000017,+0000054,-0000102,+0004161,-0000808,+0000514,-0002349,15:05:18.623685
0.300234,+0000030,-0000037,-0000005,+0000055,-0000082,+0004141,-0000808,+0000514,-0002349,15:05:18.623685
0.300568,+0000006,-0000029,-0000019,+0000066,-0000074,+0004151,-0000814,+0000524,-0002349,15:05:18.623685
0.300900,+0000009,+0000004,+0000008,+0000057,-0000076,+0004167,-0000814,+0000524,-0002349,15:05:18.623685
0.301234,+0000010,-0000019,-0000024,+0000062,-0000086,+0004145,-0000814,+0000524,-0002349,15:05:18.623685
0.301566,+0000019,-0000019,+0000004,+0000069,-0000097,+0004144,-0000802,+0000530,-0002338,15:05:18.623685
0.301900,+0000028,-0000029,-0000035,+0000050,-0000082,+0004163,-0000802,+0000530,-0002338,15:05:18.623685
0.302234,+0000020,-0000034,+0000006,+0000074,-0000090,+0004144,-0000802,+0000530,-0002338,15:05:18.623685
0.302565,+0000016,-0000024,-0000030,+0000077,-0000085,+0004154,-0000814,+0000526,-0002368,15:05:18.623685
0.302899,+0000000,+0000003,+0000011,+0000073,-0000078,+0004154,-0000814,+0000526,-0002368,15:05:18.623685
0.303231,+0000016,-0000028,-0000012,+0000086,-0000080,+0004153,-0000814,+0000526,-0002368,15:05:18.623685
0.303564,+0000017,-0000032,-0000019,+0000052,-0000089,+0004139,-0000816,+0000530,-0002352,15:05:18.623685
0.303897,+0000025,-0000045,-0000003,+0000069,-0000085,+0004152,-0000816,+0000530,-0002352,15:05:18.624690
0.304230,+0000020,-0000013,-0000002,+0000061,-0000041,+0004146,-0000816,+0000530,-0002352,15:05:18.624690
0.304563,+0000024,-0000018,-0000026,+0000057,-0000078,+0004149,-0000806,+0000530,-0002352,15:05:18.624690
0.304896,+0000008,-0000004,+0000000,+0000045,-0000086,+0004154,-0000806,+0000530,-0002352,15:05:18.624690
0.305229,+0000005,-0000023,+0000001,+0000066,-0000108,+0004154,-0000806,+0000530,-0002352,15:05:18.624690
0.305562,+0000017,-0000011,-0000013,+0000060,-0000076,+0004151,-0000812,+0000498,-0002364,15:05:18.624690
0.305895,+0000033,-0000019,-0000015,+0000057,-0000083,+0004141,-0000812,+0000498,-0002364,15:05:18.624690
0.306228,+0000013,-0000024,-0000002,+0000054,-0000090,+0004154,-0000812,+0000498,-0002364,15:05:18.624690
0.306561,+0000013,-0000005,-0000007,+0000053,-0000092,+0004143,-0000812,+0000526,-0002353,15:05:18.624690
0.306894,+0000005,-0000010,-0000010,+0000079,-0000075,+0004151,-0000812,+0000526,-0002353,15:05:18.624690
0.307227,+0000002,-0000024,-0000007,+0000054,-0000092,+0004137,-0000812,+0000526,-0002353,15:05:18.624690
0.307560,+0000017,-0000029,-0000013,+0000081,-0000066,+0004153,-0000806,+0000520,-0002316,15:05:18.624690
0.307893,+0000006,-0000035,-0000004,+0000074,-0000094,+0004158,-0000806,+0000520,-0002316,15:05:18.624690
0.308226,+0000018,-0000035,-0000013,+0000059,-0000077,+0004133,-0000806,+0000520,-0002316,15:05:18.624690
0.308559,+0000013,-0000019,-0000014,+0000068,-0000106,+0004167,-0000824,+0000518,-0002338,15:05:18.624690
0.308892,+0000001,-0000006,-0000002,+0000090,-0000074,+0004170,-0000824,+0000518,-0002338,15:05:18.624690
0.309225,+0000008,-0000003,-0000013,+0000069,-0000086,+0004175,-0000824,+0000518,-0002338,15:05:18.624690
0.309558,+0000033,-0000034,+0000001,+0000059,-0000103,+0004165,-0000818,+0000534,-0002346,15:05:18.624690
0.309891,+0000008,-0000042,-0000010,+0000068,-0000095,+0004160,-0000818,+0000534,-0002346,15:05:18.624690
0.310224,+0000024,-0000021,-0000016,+0000067,-0000071,+0004170,-0000818,+0000534,-0002346,15:05:18.624690
0.310557,+0000008,-0000005,+0000006,+0000073,-0000084,+0004150,-0000802,+0000518,-0002346,15:05:18.624690
0.310890,+0000002,-0000026,-0000003,+0000057,-0000067,+0004140,-0000802,+0000518,-0002346,15:05:18.624690
0.311223,+0000005,-0000013,+0000001,+0000055,-0000075,+0004142,-0000802,+0000518,-0002346,15:05:18.624690
0.311556,+0000014,-0000043,-0000006,+0000062,-0000081,+0004161,-0000820,+0000514,-0002325,15:05:18.624690
0.311889,+0000016,-0000029,-0000016,+0000082,-0000072,+0004167,-0000820,+0000514,-0002325,15:05:18.624690
0.312222,+0000025,-0000026,-0000007,+0000070,-0000088,+0004146,-0000820,+0000514,-0002325,15:05:18.624690
0.312555,+0000009,-0000016,-0000008,+0000054,-0000076,+0004151,-0000796,+0000504,-0002342,15:05:18.624690
0.312888,+0000002,-0000005,-0000005,+0000071,-0000088,+0004148,-0000796,+0000504,-0002342,15:05:18.624690
0.313221,+0000023,-0000021,-0000002,+0000057,-0000092,+0004140,-0000796,+0000504,-0002342,15:05:18.624690
0.313554,+0000024,-0000046,-0000013,+0000061,-0000087,+0004142,-0000802,+0000514,-0002335,15:05:18.624690
0.313887,+0000025,-0000038,+0000000,+0000083,-0000084,+0004139,-0000802,+0000514,-0002335,15:05:18.624690
0.314220,+0000014,-0000042,-0000018,+0000067,-0000078,+0004135,-0000802,+0000514,-0002335,15:05:18.624690
0.314553,+0000003,-0000007,-0000001,+0000057,-0000079,+0004146,-0000800,+0000522,-0002353,15:05:18.624690
0.314886,+0000012,-0000008,-0000005,+0000060,-0000065,+0004147,-0000800,+0000522,-0002353,15:05:18.624690
0.315219,+0000013,-0000031,-0000007,+0000060,-0000089,+0004149,-0000800,+0000522,-0002353,15:05:18.624690
0.315552,+0000035,-0000035,-0000013,+0000060,-0000085,+0004145,-0000804,+0000516,-0002343,15:05:18.624690
0.315885,+0000022,-0000039,-0000013,+0000053,-0000095,+0004156,-0000804,+0000516,-0002343,15:05:18.624690
0.316218,+0000014,-0000021,+0000001,+0000049,-0000095,+0004175,-0000804,+0000516,-0002343,15:05:18.624690
0.316551,+0000011,-0000016,-0000022,+0000050,-0000094,+0004148,-0000812,+0000518,-0002351,15:05:18.624690
0.316884,+0000011,-0000010,+0000003,+0000065,-0000079,+0004157,-0000812,+0000518,-0002351,15:05:18.624690
0.317217,+0000015,-0000031,-0000007,+0000056,-0000099,+0004140,-0000812,+0000518,-0002351,15:05:18.624690
0.317550,+0000038,-0000040,-0000008,+0000053,-0000073,+0004165,-0000786,+0000500,-0002343,15:05:18.624690
0.317883,+0000005,-0000018,-0000006,+0000048,-0000092,+0004153,-0000786,+0000500,-0002343,15:05:18.624690
0.318216,+0000003,-0000012,-0000003,+0000056,-0000101,+0004140,-0000786,+0000500,-0002343,15:05:18.624690
0.318549,+0000011,-0000012,-0000017,+0000067,-0000081,+0004157,-0000800,+0000514,-0002341,15:05:18.624690
0.318882,+0000003,-0000016,+0000008,+0000056,-0000107,+0004149,-0000800,+0000514,-0002341,15:05:18.624690
0.319215,+0000017,-0000029,-0000003,+0000058,-0000074,+0004157,-0000800,+0000514,-0002341,15:05:18.624690
0.319548,+0000027,-0000026,+0000000,+0000067,-0000078,+0004166,-0000808,+0000492,-0002351,15:05:18.624690
0.319881,+0000003,-0000008,-0000008,+0000061,-0000083,+0004153,-0000808,+0000492,-0002351,15:05:18.624690
0.320214,+0000013,-0000031,-0000016,+0000055,-0000070,+0004139,-0000808,+0000492,-0002351,15:05:18.624690
0.320547,+0000016,-0000023,-0000008,+0000063,-0000099,+0004170,-0000818,+0000506,-0002337,15:05:18.624690
0.320880,+0000002,+0000003,+0000003,+0000068,-0000093,+0004130,-0000818,+0000506,-0002337,15:05:18.624690
0.321213,+0000031,-0000040,-0000012,+0000059,-0000080,+0004158,-0000818,+0000506,-0002337,15:05:18.624690
0.321546,+0000025,-0000037,-0000002,+0000059,-0000098,+0004162,-0000812,+0000494,-0002335,15:05:18.624690
0.321879,+0000011,-0000026,-0000021,+0000045,-0000093,+0004153,-0000812,+0000494,-0002335,15:05:18.624690
0.322212,+0000009,-0000011,-0000002,+0000063,-0000070,+0004161,-0000812,+0000494,-0002335,15:05:18.624690
0.322545,+0000001,-0000016,-0000008,+0000056,-0000064,+0004166,-0000808,+0000500,-0002335,15:05:18.624690
0.322878,+0000013,-0000015,+0000004,+0000062,-0000090,+0004147,-0000808,+0000500,-0002335,15:05:18.624690
0.323211,+0000027,-0000043,-0000016,+0000074,-0000097,+0004168,-0000808,+0000500,-0002335,15:05:18.624690
0.323544,+0000027,-0000032,-0000005,+0000066,-0000091,+0004147,-0000816,+0000508,-0002327,15:05:18.624690
0.323877,+0000006,-0000034,-0000004,+0000056,-0000077,+0004163,-0000816,+0000508,-0002327,15:05:18.624690
0.324210,+0000024,-0000029,-0000016,+0000053,-0000082,+0004167,-0000816,+0000508,-0002327,15:05:18.624690
0.324543,-0000006,-0000002,-0000002,+0000063,-0000099,+0004168,-0000798,+0000500,-0002346,15:05:18.625689
0.324876,+0000003,-0000012,-0000002,+0000070,-0000092,+0004144,-0000798,+0000500,-0002346,15:05:18.625689
0.325209,+0000024,-0000031,-0000011,+0000075,-0000088,+0004159,-0000798,+0000500,-0002346,15:05:18.625689
0.325542,+0000018,-0000037,-0000015,+0000051,-0000072,+0004129,-0000808,+0000524,-0002342,15:05:18.625689
0.325875,+0000020,-0000029,-0000004,+0000066,-0000097,+0004165,-0000808,+0000524,-0002342,15:05:18.625689
0.326208,+0000016,-0000018,-0000022,+0000063,-0000097,+0004143,-0000808,+0000524,-0002342,15:05:18.625689
0.326541,-0000002,-0000021,-0000008,+0000054,-0000102,+0004159,-0000810,+0000522,-0002352,15:05:18.625689
0.326874,+0000014,-0000025,-0000003,+0000059,-0000096,+0004149,-0000810,+0000522,-0002352,15:05:18.625689
0.327207,+0000022,-0000026,-0000005,+0000053,-0000088,+0004150,-0000810,+0000522,-0002352,15:05:18.625689
0.327540,+0000033,-0000047,-0000019,+0000078,-0000101,+0004161,-0000814,+0000528,-0002346,15:05:18.625689
0.327873,+0000011,-0000032,-0000011,+0000072,-0000095,+0004171,-0000814,+0000528,-0002346,15:05:18.625689
0.328206,+0000003,+0000005,+0000001,+0000079,-0000105,+0004172,-0000814,+0000528,-0002346,15:05:18.625689
0.328539,+0000000,-0000024,-0000014,+0000059,-0000077,+0004166,-0000816,+0000496,-0002347,15:05:18.625689
0.328872,+0000024,-0000031,-0000010,+0000069,-0000080,+0004163,-0000816,+0000496,-0002347,15:05:18.625689
0.329205,+0000022,-0000041,-0000013,+0000078,-0000089,+0004153,-0000816,+0000496,-0002347,15:05:18.625689
0.329538,+0000016,-0000035,-0000014,+0000072,-0000089,+0004159,-0000818,+0000516,-0002339,15:05:18.625689
0.329871,+0000008,-0000005,+0000000,+0000065,-0000090,+0004151,-0000818,+0000516,-0002339,15:05:18.625689
0.330204,+0000014,-0000023,-0000008,+0000091,-0000104,+0004158,-0000818,+0000516,-0002339,15:05:18.625689
0.330537,+0000019,-0000010,-0000006,+0000057,-0000080,+0004153,-0000816,+0000504,-0002343,15:05:18.625689
0.330870,+0000019,-0000021,-0000008,+0000069,-0000087,+0004149,-0000816,+0000504,-0002343,15:05:18.625689
0.331203,+0000019,-0000043,-0000021,+0000061,-0000078,+0004153,-0000816,+0000504,-0002343,15:05:18.625689
0.331536,+0000022,-0000016,-0000014,+0000050,-0000103,+0004142,-0000810,+0000516,-0002320,15:05:18.625689
0.331869,+0000000,-0000024,-0000013,+0000081,-0000094,+0004151,-0000810,+0000516,-0002320,15:05:18.625689
0.332202,+0000008,-0000011,-0000005,+0000069,-0000091,+0004145,-0000810,+0000516,-0002320,15:05:18.625689
0.332535,+0000013,-0000015,-0000011,+0000054,-0000092,+0004147,-0000830,+0000514,-0002352,15:05:18.626692
0.332868,+0000009,-0000042,-0000005,+0000052,-0000104,+0004156,-0000830,+0000514,-0002352,15:05:18.626692
0.333201,+0000032,-0000032,-0000019,+0000065,-0000081,+0004150,-0000830,+0000514,-0002352,15:05:18.626692
0.333534,+0000014,-0000002,+0000009,+0000066,-0000085,+0004117,-0000816,+0000494,-0002350,15:05:18.626692
0.333867,+0000017,-0000026,-0000019,+0000054,-0000093,+0004152,-0000816,+0000494,-0002350,15:05:18.626692
0.334200,-0000001,-0000013,-0000003,+0000068,-0000087,+0004160,-0000816,+0000494,-0002350,15:05:18.626692
0.334533,+0000027,-0000028,-0000011,+0000056,-0000085,+0004153,-0000820,+0000514,-0002325,15:05:18.626692
0.334866,+0000013,-0000019,-0000021,+0000074,-0000105,+0004148,-0000820,+0000514,-0002325,15:05:18.626692
0.335199,+0000016,-0000031,-0000008,+0000061,-0000106,+0004150,-0000820,+0000514,-0002325,15:05:18.626692
0.335532,+0000019,-0000029,-0000007,+0000066,-0000095,+0004155,-0000806,+0000504,-0002367,15:05:18.626692
0.335865,+0000002,-0000015,-0000003,+0000056,-0000074,+0004149,-0000806,+0000504,-0002367,15:05:18.626692
0.336198,+0000016,-0000021,-0000013,+0000057,-0000079,+0004150,-0000806,+0000504,-0002367,15:05:18.626692
0.336531,+0000003,-0000004,+0000001,+0000060,-0000112,+0004135,-0000810,+0000508,-0002349,15:05:18.626692
0.336864,+0000019,-0000031,-0000014,+0000043,-0000096,+0004156,-0000810,+0000508,-0002349,15:05:18.626692
0.337197,+0000030,-0000035,-0000016,+0000070,-0000085,+0004144,-0000810,+0000508,-0002349,15:05:18.626692
0.337530,+0000013,-0000031,-0000003,+0000050,-0000086,+0004166,-0000800,+0000528,-0002328,15:05:18.626692
0.337863,+0000001,-0000019,-0000022,+0000065,-0000094,+0004161,-0000800,+0000528,-0002328,15:05:18.626692
0.338196,+0000011,-0000016,-0000010,+0000057,-0000076,+0004136,-0000800,+0000528,-0002328,15:05:18.626692
0.338529,+0000018,-0000029,-0000011,+0000055,-0000072,+0004157,-0000816,+0000518,-0002333,15:05:18.626692
0.338862,+0000008,-0000026,+0000004,+0000058,-0000069,+0004166,-0000816,+0000518,-0002333,15:05:18.626692
0.339195,+0000021,-0000039,-0000008,+0000049,-0000094,+0004129,-0000816,+0000518,-0002333,15:05:18.626692
0.339528,+0000019,-0000026,-0000018,+0000061,-0000087,+0004160,-0000806,+0000522,-0002325,15:05:18.626692
0.339861,+0000021,-0000027,-0000011,+0000066,-0000076,+0004134,-0000806,+0000522,-0002325,15:05:18.626692
0.340194,+0000005,-0000013,-0000021,+0000069,-0000088,+0004160,-0000806,+0000522,-0002325,15:05:18.626692
0.340527,+0000025,-0000021,-0000007,+0000069,-0000079,+0004115,-0000792,+0000520,-0002343,15:05:18.626692
0.340860,+0000009,-0000040,+0000000,+0000067,-0000093,+0004157,-0000792,+0000520,-0002343,15:05:18.626692
0.341193,+0000030,-0000032,-0000016,+0000079,-0000091,+0004147,-0000792,+0000520,-0002343,15:05:18.626692
0.341526,+0000016,-0000024,-0000007,+0000066,-0000095,+0004145,-0000808,+0000518,-0002340,15:05:18.626692
0.341859,+0000003,+0000001,-0000008,+0000035,-0000067,+0004148,-0000808,+0000518,-0002340,15:05:18.626692
0.342192,+0000011,-0000018,-0000005,+0000071,-0000091,+0004164,-0000808,+0000518,-0002340,15:05:18.626692
0.342525,+0000014,-0000023,+0000004,+0000076,-0000075,+0004167,-0000802,+0000518,-0002349,15:05:18.665320
0.342858,+0000030,-0000034,-0000016,+0000068,-0000094,+0004154,-0000802,+0000518,-0002349,15:05:18.665320
0.343198,+0000020,-0000035,-0000006,+0000077,-0000117,+0004154,-0000802,+0000518,-0002349,15:05:18.665320
0.343902,+0000006,-0000020,-0000002,+0000083,-0000079,+0004157,-0000800,+0000528,-0002361,15:05:18.665320
0.344287,+0000008,-0000021,-0000011,+0000078,-0000098,+0004146,-0000800,+0000528,-0002361,15:05:18.665320
0.344547,+0000013,-0000032,-0000011,+0000078,-0000098,+0004147,-0000800,+0000528,-0002361,15:05:18.665320
0.344990,+0000009,-0000031,-0000008,+0000064,-0000079,+0004162,-0000816,+0000528,-0002325,15:05:18.665320
0.345263,+0000017,-0000026,-0000016,+0000051,-0000084,+0004162,-0000816,+0000528,-0002325,15:05:18.665320
0.345527,+0000006,-0000012,-0000002,+0000068,-0000076,+0004145,-0000816,+0000528,-0002325,15:05:18.665320
0.345856,+0000039,-0000056,-0000021,+0000077,-0000080,+0004155,-0000816,+0000528,-0002325,15:05:18.665320
0.346188,+0000003,-0000016,+0000001,+0000062,-0000087,+0004149,-0000816,+0000528,-0002325,15:05:18.665320
0.346522,+0000019,-0000040,-0000008,+0000073,-0000081,+0004170,-0000816,+0000528,-0002325,15:05:18.665320
0.346854,+0000016,-0000024,-0000013,+0000056,-0000092,+0004171,-0000818,+0000520,-0002311,15:05:18.665320
0.347187,+0000010,-0000016,+0000009,+0000063,-0000100,+0004162,-0000818,+0000520,-0002311,15:05:18.665320
0.347520,+0000016,-0000024,-0000023,+0000076,-0000091,+0004151,-0000818,+0000520,-0002311,15:05:18.665320
0.347853,+0000016,-0000002,+0000000,+0000087,-0000091,+0004184,-0000794,+0000514,-0002339,15:05:18.665320
0.348186,+0000006,-0000019,-0000011,+0000065,-0000099,+0004156,-0000794,+0000514,-0002339,15:05:18.665320
0.348519,+0000006,-0000026,-0000013,+0000076,-0000106,+0004142,-0000794,+0000514,-0002339,15:05:18.665320
0.348852,+0000027,-0000018,-0000002,+0000053,-0000093,+0004144,-0000798,+0000514,-0002322,15:05:18.665320
0.349185,+0000010,-0000037,-0000006,+0000048,-0000074,+0004161,-0000798,+0000514,-0002322,15:05:18.665320
0.349518,+0000011,-0000012,-0000010,+0000059,-0000083,+0004159,-0000798,+0000514,-0002322,15:05:18.665320
0.349851,+0000003,-0000013,+0000000,+0000071,-0000093,+0004162,-0000812,+0000522,-0002320,15:05:18.665320
0.350184,+0000019,-0000015,+0000008,+0000068,-0000095,+0004187,-0000812,+0000522,-0002320,15:05:18.665320
0.350517,+0000030,-0000037,-0000021,+0000067,-0000111,+0004158,-0000812,+0000522,-0002320,15:05:18.665320
0.350850,+0000003,-0000031,+0000000,+0000077,-0000096,+0004142,-0000796,+0000520,-0002303,15:05:18.665320
0.351183,+0000020,-0000029,-0000013,+0000062,-0000096,+0004146,-0000796,+0000520,-0002303,15:05:18.665320
0.351519,+0000014,-0000018,-0000024,+0000068,-0000082,+0004152,-0000796,+0000520,-0002303,15:05:18.665320
0.351849,+0000006,-0000005,-0000002,+0000078,-0000080,+0004145,-0000816,+0000512,-0002324,15:05:18.665320
0.352182,+0000009,-0000024,-0000007,+0000074,-0000072,+0004162,-0000816,+0000512,-0002324,15:05:18.666321
0.352515,+0000022,-0000037,-0000005,+0000058,-0000093,+0004166,-0000816,+0000512,-0002324,15:05:18.666321
0.352848,+0000013,-0000047,-0000027,+0000058,-0000105,+0004168,-0000814,+0000516,-0002347,15:05:18.666321
0.353181,+0000017,-0000034,-0000012,+0000046,-0000092,+0004153,-0000814,+0000516,-0002347,15:05:18.666321
0.353658,+0000025,-0000024,-0000008,+0000062,-0000075,+0004135,-0000814,+0000516,-0002347,15:05:18.666321
0.353848,-0000002,+0000001,-0000004,+0000060,-0000095,+0004139,-0000802,+0000512,-0002341,15:05:18.666321
0.354184,+0000020,-0000034,-0000013,+0000074,-0000105,+0004147,-0000802,+0000512,-0002341,15:05:18.666321
0.354514,+0000013,-0000024,-0000002,+0000052,-0000086,+0004146,-0000802,+0000512,-0002341,15:05:18.666321
0.354847,+0000022,-0000022,-0000021,+0000066,-0000071,+0004133,-0000802,+0000510,-0002314,15:05:18.666321
0.355180,+0000008,-0000039,-0000007,+0000066,-0000092,+0004120,-0000802,+0000510,-0002314,15:05:18.666321
0.355514,+0000008,-0000010,-0000013,+0000044,-0000066,+0004164,-0000802,+0000510,-0002314,15:05:18.666321
0.355845,-0000008,-0000019,+0000006,+0000072,-0000090,+0004154,-0000806,+0000496,-0002312,15:05:18.666321
0.356178,+0000016,-0000016,-0000013,+0000079,-0000109,+0004139,-0000806,+0000496,-0002312,15:05:18.666321
0.356511,+0000030,-0000044,-0000021,+0000076,-0000081,+0004153,-0000806,+0000496,-0002312,15:05:18.666321
0.356845,+0000021,-0000044,-0000003,+0000066,-0000092,+0004129,-0000814,+0000512,-0002362,15:05:18.666321
0.357179,-0000003,+0000001,+0000008,+0000051,-0000089,+0004138,-0000814,+0000512,-0002362,15:05:18.666321
0.357511,+0000010,-0000015,-0000016,+0000069,-0000100,+0004128,-0000814,+0000512,-0002362,15:05:18.666321
0.357843,+0000025,-0000018,-0000003,+0000062,-0000099,+0004152,-0000822,+0000518,-0002355,15:05:18.666321
0.358176,+0000025,-0000032,-0000010,+0000062,-0000079,+0004150,-0000822,+0000518,-0002355,15:05:18.666321
0.358509,+0000016,-0000030,-0000007,+0000069,-0000086,+0004168,-0000822,+0000518,-0002355,15:05:18.666321
0.358842,+0000025,-0000020,-0000005,+0000060,-0000068,+0004151,-0000826,+0000514,-0002353,15:05:18.666321
0.359175,+0000014,-0000016,-0000008,+0000066,-0000111,+0004161,-0000826,+0000514,-0002353,15:05:18.666321
0.359508,+0000008,-0000013,-0000004,+0000051,-0000084,+0004148,-0000826,+0000514,-0002353,15:05:18.666321
0.359841,+0000010,-0000036,-0000007,+0000064,-0000103,+0004132,-0000814,+0000526,-0002346,15:05:18.666321
0.360174,+0000014,-0000020,-0000005,+0000068,-0000078,+0004146,-0000814,+0000526,-0002346,15:05:18.666321
0.360507,+0000041,-0000043,-0000005,+0000088,-0000085,+0004139,-0000814,+0000526,-0002346,15:05:18.666321
0.360840,+0000016,-0000023,-0000013,+0000066,-0000064,+0004132,-0000804,+0000518,-0002341,15:05:18.666321
0.361173,-0000002,-0000024,+0000001,+0000082,-0000077,+0004151,-0000804,+0000518,-0002341,15:05:18.666321
0.361506,+0000019,-0000005,-0000016,+0000061,-0000092,+0004166,-0000804,+0000518,-0002341,15:05:18.668323
0.361839,-0000001,-0000026,+0000000,+0000048,-0000099,+0004156,-0000800,+0000504,-0002332,15:05:18.668323
0.362172,+0000017,-0000029,-0000008,+0000063,-0000100,+0004147,-0000800,+0000504,-0002332,15:05:18.668323
0.362505,+0000006,-0000026,-0000010,+0000050,-0000092,+0004129,-0000800,+0000504,-0002332,15:05:18.668323
0.362838,+0000019,-0000024,-0000008,+0000077,-0000097,+0004165,-0000820,+0000506,-0002357,15:05:18.668323
0.363171,+0000005,-0000008,-0000001,+0000071,-0000088,+0004154,-0000820,+0000506,-0002357,15:05:18.668323
0.363504,+0000013,-0000015,-0000015,+0000070,-0000069,+0004145,-0000820,+0000506,-0002357,15:05:18.668323
0.363837,+0000014,-0000021,+0000000,+0000046,-0000074,+0004152,-0000818,+0000536,-0002361,15:05:18.668323
0.364170,+0000022,-0000037,-0000011,+0000059,-0000095,+0004152,-0000818,+0000536,-0002361,15:05:18.668323
0.364503,+0000019,-0000027,-0000006,+0000047,-0000079,+0004171,-0000818,+0000536,-0002361,15:05:18.668323
0.364836,+0000024,-0000021,-0000019,+0000056,-0000075,+0004140,-0000804,+0000522,-0002362,15:05:18.668323
0.365169,+0000013,-0000006,-0000008,+0000073,-0000075,+0004147,-0000804,+0000522,-0002362,15:05:18.668323
0.365502,+0000001,-0000015,+0000001,+0000070,-0000079,+0004158,-0000804,+0000522,-0002362,15:05:18.668323
0.365835,+0000008,-0000015,-0000005,+0000074,-0000088,+0004147,-0000804,+0000522,-0002328,15:05:18.668323
0.366168,+0000009,-0000029,+0000005,+0000039,-0000105,+0004168,-0000804,+0000522,-0002328,15:05:18.668323
0.366501,+0000024,-0000038,-0000015,+0000063,-0000080,+0004159,-0000804,+0000522,-0002328,15:05:18.668323
0.366834,+0000020,-0000026,-0000007,+0000068,-0000103,+0004165,-0000818,+0000518,-0002365,15:05:18.668323
0.367167,+0000008,-0000019,-0000011,+0000051,-0000100,+0004150,-0000818,+0000518,-0002365,15:05:18.668323
0.367500,+0000017,-0000021,+0000001,+0000054,-0000096,+0004151,-0000818,+0000518,-0002365,15:05:18.668323
0.367833,+0000022,-0000018,-0000007,+0000050,-0000082,+0004171,-0000808,+0000520,-0002335,15:05:18.668323
0.368166,+0000019,-0000035,-0000005,+0000053,-0000091,+0004156,-0000808,+0000520,-0002335,15:05:18.668323
0.368499,+0000029,-0000039,-0000018,+0000070,-0000087,+0004150,-0000808,+0000520,-0002335,15:05:18.668323
0.368832,+0000013,-0000026,-0000005,+0000074,-0000102,+0004151,-0000798,+0000538,-0002356,15:05:18.668323
0.369165,+0000003,-0000013,+0000000,+0000066,-0000108,+0004154,-0000798,+0000538,-0002356,15:05:18.668323
0.369498,+0000000,-0000010,-0000010,+0000077,-0000078,+0004158,-0000798,+0000538,-0002356,15:05:18.668323
0.369831,+0000013,-0000027,-0000004,+0000060,-0000064,+0004147,-0000816,+0000516,-0002360,15:05:18.668323
0.370164,+0000022,-0000043,-0000029,+0000065,-0000083,+0004149,-0000816,+0000516,-0002360,15:05:18.668323
0.370497,+0000011,-0000026,-0000005,+0000085,-0000098,+0004154,-0000816,+0000516,-0002360,15:05:18.668323
0.370830,+0000005,-0000016,-0000016,+0000054,-0000088,+0004143,-0000798,+0000496,-0002367,15:05:18.668323
0.371163,+0000002,-0000016,-0000002,+0000051,-0000076,+0004147,-0000798,+0000496,-0002367,15:05:18.668323
0.371496,+0000013,-0000031,-0000017,+0000078,-0000092,+0004154,-0000798,+0000496,-0002367,15:05:18.668323
0.371829,+0000025,-0000029,+0000001,+0000052,-0000103,+0004152,-0000812,+0000514,-0002336,15:05:18.668323
0.372162,+0000006,-0000034,-0000012,+0000053,-0000078,+0004162,-0000812,+0000514,-0002336,15:05:18.668323
0.372495,+0000024,-0000020,-0000018,+0000064,-0000080,+0004155,-0000812,+0000514,-0002336,15:05:18.668323
0.372828,+0000002,-0000016,-0000003,+0000057,-0000099,+0004157,-0000802,+0000502,-0002353,15:05:18.668323
0.373161,+0000024,-0000024,-0000007,+0000065,-0000099,+0004135,-0000802,+0000502,-0002353,15:05:18.668323
0.373494,+0000013,-0000032,-0000011,+0000079,-0000099,+0004128,-0000802,+0000502,-0002353,15:05:18.668323
0.373827,-0000004,-0000015,-0000004,+0000050,-0000108,+0004152,-0000814,+0000516,-0002373,15:05:18.668323
0.374160,+0000032,-0000034,-0000013,+0000073,-0000085,+0004144,-0000814,+0000516,-0002373,15:05:18.668323
0.374493,+0000020,-0000021,-0000005,+0000073,-0000077,+0004163,-0000814,+0000516,-0002373,15:05:18.668323
0.374826,+0000019,-0000013,-0000015,+0000060,-0000071,+0004161,-0000802,+0000506,-0002371,15:05:18.668323
0.375159,+0000007,-0000018,-0000011,+0000061,-0000092,+0004160,-0000802,+0000506,-0002371,15:05:18.668323
0.375492,+0000017,-0000013,+0000003,+0000053,-0000083,+0004164,-0000802,+0000506,-0002371,15:05:18.668323
0.375825,+0000014,-0000027,-0000008,+0000069,-0000073,+0004159,-0000806,+0000524,-0002343,15:05:18.668323
0.376158,+0000031,-0000032,-0000013,+0000053,-0000085,+0004158,-0000806,+0000524,-0002343,15:05:18.668323
0.376491,+0000004,-0000024,-0000003,+0000056,-0000080,+0004138,-0000806,+0000524,-0002343,15:05:18.668323
