===BEGIN_METADATA===
"This CSV contains gyroscope, accelerometer, and magnetometer data synced with the test named below."
Test Name: 2026-07-07_150040_01,yyyy-mm-dd_hhmmss_{probe#/nano_id}
Calibrations: (not implemented yet)
===END_METADATA===
===BEGIN_DATA===
Time (sec),Gyro X,Gyro Y,Gyro Z,Accel X,Accel Y,Accel Z,Mag X,Mag Y,Mag Z,Processed_Time
0.000222,+0000005,-0000019,-0000018,+0000005,-0000080,+0004154,-0000640,+0000276,-0002578,15:00:42.985478
0.000552,+0000006,-0000005,+0000003,+0000032,-0000081,+0004161,-0000770,+0000480,-0002334,15:00:42.986474
0.000883,+0000027,-0000048,-0000019,+0000029,-0000093,+0004148,-0000770,+0000480,-0002334,15:00:42.986474
0.001216,+0000014,-0000024,-0000004,+0000015,-0000072,+0004150,-0000770,+0000480,-0002334,15:00:42.986474
0.001549,+0000006,+0000014,+0000000,+0000027,-0000076,+0004139,-0000768,+0000478,-0002318,15:00:42.986474
0.001882,+0000011,-0000022,-0000011,+0000021,-0000076,+0004139,-0000768,+0000478,-0002318,15:00:42.986474
0.002216,+0000013,-0000019,-0000003,+0000019,-0000089,+0004143,-0000768,+0000478,-0002318,15:00:42.986474
0.002548,+0000036,-0000042,-0000012,+0000013,-0000083,+0004173,-0000752,+0000474,-0002334,15:00:42.986474
0.002881,+0000019,-0000035,-0000010,+0000027,-0000075,+0004156,-0000752,+0000474,-0002334,15:00:42.986474
0.003216,+0000013,-0000021,-0000027,+0000018,-0000072,+0004160,-0000752,+0000474,-0002334,15:00:42.986474
0.003547,+0000005,-0000011,+0000006,+0000038,-0000095,+0004161,-0000762,+0000474,-0002329,15:00:42.986474
0.003880,+0000018,-0000011,-0000010,+0000020,-0000078,+0004157,-0000762,+0000474,-0002329,15:00:42.986474
0.004216,+0000018,-0000032,-0000015,+0000016,-0000083,+0004171,-0000762,+0000474,-0002329,15:00:42.986474
0.004546,+0000019,-0000027,-0000002,+0000019,-0000065,+0004143,-0000756,+0000468,-0002350,15:00:42.986474
0.004879,+0000013,-0000034,-0000005,+0000033,-0000053,+0004166,-0000756,+0000468,-0002350,15:00:42.986474
0.005216,+0000000,-0000013,-0000004,+0000026,-0000062,+0004152,-0000756,+0000468,-0002350,15:00:42.986474
0.005545,+0000014,-0000011,-0000013,+0000001,-0000097,+0004161,-0000758,+0000488,-0002336,15:00:42.987473
0.005878,+0000015,-0000015,-0000003,+0000009,-0000092,+0004149,-0000758,+0000488,-0002336,15:00:42.987473
0.006216,+0000011,-0000030,-0000011,+0000015,-0000097,+0004158,-0000758,+0000488,-0002336,15:00:42.987473
0.006544,+0000019,-0000010,-0000007,+0000009,-0000069,+0004162,-0000776,+0000484,-0002363,15:00:42.987473
0.006877,+0000006,-0000020,-0000013,+0000013,-0000089,+0004168,-0000776,+0000484,-0002363,15:00:42.987473
0.007215,+0000020,-0000021,-0000002,+0000019,-0000096,+0004162,-0000776,+0000484,-0002363,15:00:42.987473
0.007543,+0000013,-0000016,-0000008,+0000025,-0000081,+0004164,-0000762,+0000478,-0002353,15:00:42.987473
0.007876,+0000017,-0000029,-0000001,+0000032,-0000081,+0004146,-0000762,+0000478,-0002353,15:00:42.987473
0.008214,+0000012,-0000032,-0000010,+0000030,-0000077,+0004126,-0000762,+0000478,-0002353,15:00:42.987473
0.008542,+0000015,-0000026,+0000001,+0000031,-0000079,+0004159,-0000738,+0000472,-0002325,15:00:42.987473
0.008875,+0000019,-0000032,-0000021,+0000020,-0000080,+0004154,-0000738,+0000472,-0002325,15:00:42.987473
0.009214,+0000005,-0000026,-0000002,+0000035,-0000060,+0004157,-0000738,+0000472,-0002325,15:00:43.024637
0.009544,+0000008,-0000012,-0000013,+0000023,-0000100,+0004170,-0000752,+0000480,-0002324,15:00:43.024637
0.009876,+0000005,-0000016,-0000016,+0000029,-0000072,+0004152,-0000752,+0000480,-0002324,15:00:43.024637
0.010572,+0000016,-0000034,-0000013,+0000036,-0000086,+0004158,-0000752,+0000480,-0002324,15:00:43.024637
0.010874,+0000013,-0000013,-0000008,+0000028,-0000102,+0004152,-0000760,+0000464,-0002341,15:00:43.024637
0.011212,+0000007,+0000008,-0000007,+0000029,-0000084,+0004155,-0000760,+0000464,-0002341,15:00:43.024637
0.011539,+0000002,-0000021,-0000008,+0000030,-0000102,+0004164,-0000760,+0000464,-0002341,15:00:43.024637
0.011874,+0000013,-0000016,-0000010,+0000022,-0000089,+0004146,-0000778,+0000470,-0002334,15:00:43.024637
0.012212,+0000016,-0000027,-0000011,+0000020,-0000087,+0004140,-0000778,+0000470,-0002334,15:00:43.024637
0.012539,+0000027,-0000035,-0000010,+0000021,-0000103,+0004153,-0000778,+0000470,-0002334,15:00:43.024637
0.012872,+0000018,-0000018,-0000010,+0000030,-0000100,+0004162,-0000778,+0000476,-0002333,15:00:43.024637
0.013210,+0000013,-0000036,-0000023,+0000025,-0000075,+0004139,-0000778,+0000476,-0002333,15:00:43.024637
0.013539,+0000005,-0000019,-0000011,+0000009,-0000070,+0004161,-0000778,+0000476,-0002333,15:00:43.024637
0.013870,+0000017,-0000028,-0000003,+0000027,-0000078,+0004151,-0000760,+0000454,-0002348,15:00:43.024637
0.014210,+0000018,-0000025,-0000005,+0000024,-0000095,+0004148,-0000760,+0000454,-0002348,15:00:43.024637
0.014537,+0000027,-0000029,-0000007,+0000019,-0000111,+0004155,-0000760,+0000454,-0002348,15:00:43.024637
0.014869,+0000008,-0000026,-0000016,+0000019,-0000084,+0004152,-0000762,+0000460,-0002329,15:00:43.024637
0.015208,-0000004,+0000011,-0000005,+0000022,-0000087,+0004146,-0000762,+0000460,-0002329,15:00:43.024637
0.015535,+0000008,-0000021,+0000000,+0000018,-0000082,+0004143,-0000762,+0000460,-0002329,15:00:43.024637
0.015881,+0000025,-0000029,-0000010,+0000019,-0000078,+0004151,-0000756,+0000462,-0002336,15:00:43.024637
0.016207,+0000010,-0000035,-0000005,+0000011,-0000095,+0004170,-0000756,+0000462,-0002336,15:00:43.024637
0.016534,+0000006,-0000018,-0000018,+0000007,-0000078,+0004126,-0000756,+0000462,-0002336,15:00:43.024637
0.016867,+0000014,-0000022,-0000011,+0000026,-0000092,+0004149,-0000756,+0000478,-0002318,15:00:43.024637
0.017200,+0000014,-0000020,-0000015,+0000012,-0000079,+0004152,-0000756,+0000478,-0002318,15:00:43.024637
0.017533,+0000011,-0000018,+0000004,+0000026,-0000091,+0004154,-0000756,+0000478,-0002318,15:00:43.024637
0.017866,+0000014,-0000013,-0000010,+0000024,-0000084,+0004137,-0000778,+0000474,-0002327,15:00:43.024637
0.018199,+0000029,-0000045,-0000005,+0000016,-0000092,+0004129,-0000778,+0000474,-0002327,15:00:43.024637
0.018532,+0000013,-0000013,-0000007,+0000014,-0000076,+0004149,-0000778,+0000474,-0002327,15:00:43.024637
0.018865,+0000011,-0000030,-0000013,+0000022,-0000081,+0004150,-0000750,+0000482,-0002330,15:00:43.024637
0.019198,+0000002,-0000004,+0000000,+0000021,-0000083,+0004146,-0000750,+0000482,-0002330,15:00:43.024637
0.019531,+0000009,-0000022,-0000011,+0000014,-0000104,+0004158,-0000750,+0000482,-0002330,15:00:43.024637
0.019864,+0000028,-0000027,+0000000,+0000030,-0000085,+0004156,-0000756,+0000484,-0002331,15:00:43.024637
0.020197,+0000006,-0000017,-0000029,+0000031,-0000055,+0004162,-0000756,+0000484,-0002331,15:00:43.024637
0.020530,+0000019,-0000031,-0000003,+0000017,-0000084,+0004140,-0000756,+0000484,-0002331,15:00:43.024637
0.020863,+0000028,-0000016,-0000015,+0000018,-0000102,+0004142,-0000774,+0000466,-0002327,15:00:43.024637
0.021196,+0000004,-0000019,+0000000,+0000009,-0000081,+0004160,-0000774,+0000466,-0002327,15:00:43.024637
0.021529,+0000013,-0000002,-0000013,+0000017,-0000092,+0004150,-0000774,+0000466,-0002327,15:00:43.024637
0.021862,+0000019,-0000039,+0000000,+0000038,-0000102,+0004156,-0000752,+0000462,-0002337,15:00:43.024637
0.022195,+0000024,-0000034,-0000014,+0000034,-0000068,+0004147,-0000752,+0000462,-0002337,15:00:43.024637
0.022528,+0000018,-0000039,-0000008,+0000018,-0000081,+0004159,-0000752,+0000462,-0002337,15:00:43.024637
0.022861,+0000020,-0000020,+0000000,+0000037,-0000075,+0004140,-0000768,+0000470,-0002339,15:00:43.024637
0.023194,+0000003,-0000015,-0000013,+0000027,-0000069,+0004157,-0000768,+0000470,-0002339,15:00:43.024637
0.023527,-0000003,-0000005,-0000010,+0000024,-0000080,+0004172,-0000768,+0000470,-0002339,15:00:43.024637
0.023860,+0000014,-0000029,-0000011,+0000035,-0000101,+0004163,-0000746,+0000468,-0002333,15:00:43.024637
0.024193,+0000005,-0000026,-0000013,+0000024,-0000083,+0004154,-0000746,+0000468,-0002333,15:00:43.024637
0.024526,+0000024,-0000026,+0000001,+0000026,-0000079,+0004156,-0000746,+0000468,-0002333,15:00:43.024637
0.024859,+0000005,-0000031,-0000018,+0000026,-0000084,+0004157,-0000752,+0000476,-0002314,15:00:43.024637
0.025192,+0000014,-0000010,-0000012,+0000014,-0000076,+0004170,-0000752,+0000476,-0002314,15:00:43.024637
0.025525,+0000017,-0000016,-0000011,+0000028,-0000069,+0004163,-0000752,+0000476,-0002314,15:00:43.024637
0.025858,+0000009,-0000024,-0000002,+0000017,-0000061,+0004143,-0000762,+0000478,-0002334,15:00:43.024637
0.026191,+0000021,-0000031,-0000005,+0000024,-0000077,+0004136,-0000762,+0000478,-0002334,15:00:43.024637
0.026524,+0000016,-0000032,-0000016,+0000031,-0000066,+0004166,-0000762,+0000478,-0002334,15:00:43.024637
0.026857,+0000016,-0000032,-0000001,+0000026,-0000079,+0004153,-0000752,+0000486,-0002351,15:00:43.024637
0.027190,-0000008,-0000003,+0000001,+0000018,-0000078,+0004147,-0000752,+0000486,-0002351,15:00:43.024637
0.027523,+0000018,-0000018,-0000016,+0000008,-0000060,+0004147,-0000752,+0000486,-0002351,15:00:43.024637
0.027856,+0000013,-0000023,+0000006,+0000018,-0000078,+0004147,-0000758,+0000478,-0002316,15:00:43.024637
0.028189,+0000035,-0000045,-0000026,-0000001,-0000093,+0004147,-0000758,+0000478,-0002316,15:00:43.024637
0.028522,+0000002,-0000010,-0000003,-0000001,-0000093,+0004155,-0000758,+0000478,-0002316,15:00:43.024637
0.028855,-0000012,+0000006,+0000000,+0000019,-0000092,+0004155,-0000758,+0000478,-0002327,15:00:43.024637
0.029188,+0000014,-0000018,-0000010,+0000023,-0000085,+0004149,-0000758,+0000478,-0002327,15:00:43.024637
0.029521,+0000014,-0000016,-0000004,+0000011,-0000092,+0004146,-0000758,+0000478,-0002327,15:00:43.024637
0.029854,+0000016,-0000053,-0000018,+0000005,-0000088,+0004134,-0000772,+0000468,-0002330,15:00:43.024637
0.030187,+0000024,-0000021,+0000000,+0000014,-0000078,+0004132,-0000772,+0000468,-0002330,15:00:43.024637
0.030520,+0000014,-0000028,-0000003,+0000013,-0000087,+0004136,-0000772,+0000468,-0002330,15:00:43.024637
0.030853,+0000007,-0000015,-0000007,+0000019,-0000084,+0004143,-0000766,+0000468,-0002329,15:00:43.024637
0.031186,+0000022,-0000018,-0000011,+0000010,-0000095,+0004139,-0000766,+0000468,-0002329,15:00:43.024637
0.031519,+0000003,-0000018,-0000002,+0000023,-0000083,+0004147,-0000766,+0000468,-0002329,15:00:43.024637
0.031852,+0000032,-0000039,+0000000,-0000016,-0000098,+0004140,-0000762,+0000444,-0002344,15:00:43.024637
0.032185,+0000013,-0000020,-0000008,+0000004,-0000095,+0004143,-0000762,+0000444,-0002344,15:00:43.024637
0.032518,+0000009,-0000018,-0000007,+0000017,-0000082,+0004162,-0000762,+0000444,-0002344,15:00:43.024637
0.032851,+0000014,-0000018,-0000010,+0000027,-0000086,+0004152,-0000756,+0000478,-0002313,15:00:43.024637
0.033184,+0000014,-0000009,-0000013,+0000016,-0000071,+0004144,-0000756,+0000478,-0002313,15:00:43.024637
0.033517,+0000011,-0000024,-0000007,+0000025,-0000087,+0004147,-0000756,+0000478,-0002313,15:00:43.024637
0.033850,+0000008,-0000038,-0000019,+0000026,-0000085,+0004149,-0000760,+0000476,-0002329,15:00:43.024637
0.034183,+0000017,-0000013,-0000010,+0000007,-0000086,+0004140,-0000760,+0000476,-0002329,15:00:43.024637
0.034516,-0000003,-0000029,-0000012,+0000014,-0000083,+0004152,-0000760,+0000476,-0002329,15:00:43.024637
0.034849,+0000010,-0000010,-0000006,+0000024,-0000072,+0004150,-0000762,+0000478,-0002322,15:00:43.024637
0.035182,+0000000,-0000024,-0000019,+0000020,-0000068,+0004161,-0000762,+0000478,-0002322,15:00:43.024637
0.035515,+0000024,-0000029,-0000008,+0000010,-0000099,+0004171,-0000762,+0000478,-0002322,15:00:43.024637
0.035848,+0000027,-0000030,-0000012,+0000017,-0000081,+0004156,-0000764,+0000480,-0002341,15:00:43.024637
0.036181,+0000014,-0000026,-0000012,-0000005,-0000091,+0004153,-0000764,+0000480,-0002341,15:00:43.024637
0.036514,+0000019,-0000026,-0000015,+0000031,-0000089,+0004152,-0000764,+0000480,-0002341,15:00:43.024637
0.036847,+0000006,-0000006,-0000002,+0000019,-0000077,+0004133,-0000766,+0000454,-0002333,15:00:43.024637
0.037180,+0000017,-0000026,-0000012,+0000009,-0000087,+0004157,-0000766,+0000454,-0002333,15:00:43.024637
0.037513,+0000016,-0000037,-0000013,+0000032,-0000077,+0004158,-0000766,+0000454,-0002333,15:00:43.024637
0.037846,+0000041,-0000032,-0000018,+0000002,-0000064,+0004149,-0000758,+0000466,-0002319,15:00:43.024637
0.038179,+0000005,-0000027,-0000007,+0000033,-0000089,+0004150,-0000758,+0000466,-0002319,15:00:43.024637
0.038512,+0000016,-0000018,-0000021,+0000013,-0000090,+0004136,-0000758,+0000466,-0002319,15:00:43.024637
0.038845,+0000012,-0000005,+0000006,+0000028,-0000085,+0004157,-0000756,+0000472,-0002313,15:00:43.024637
0.039178,-0000003,-0000021,-0000002,+0000036,-0000068,+0004138,-0000756,+0000472,-0002313,15:00:43.024637
0.039511,+0000025,-0000025,-0000004,+0000005,-0000099,+0004160,-0000756,+0000472,-0002313,15:00:43.024637
0.039844,+0000028,-0000043,-0000027,+0000021,-0000073,+0004174,-0000762,+0000456,-0002315,15:00:43.024637
0.040177,+0000018,-0000034,-0000002,+0000028,-0000068,+0004167,-0000762,+0000456,-0002315,15:00:43.024637
0.040510,+0000011,-0000015,-0000011,+0000023,-0000074,+0004143,-0000762,+0000456,-0002315,15:00:43.024637
0.040843,+0000004,-0000013,+0000000,+0000034,-0000102,+0004138,-0000774,+0000474,-0002327,15:00:43.024637
0.041176,+0000000,-0000028,-0000010,+0000019,-0000098,+0004156,-0000774,+0000474,-0002327,15:00:43.024637
0.041509,+0000022,-0000038,-0000004,+0000014,-0000077,+0004146,-0000774,+0000474,-0002327,15:00:43.025637
0.041845,+0000027,-0000034,-0000015,+0000023,-0000094,+0004141,-0000740,+0000468,-0002303,15:00:43.025637
0.042175,+0000017,-0000032,-0000010,+0000024,-0000102,+0004142,-0000740,+0000468,-0002303,15:00:43.025637
0.042508,+0000013,-0000011,-0000010,+0000029,-0000080,+0004157,-0000740,+0000468,-0002303,15:00:43.025637
0.042841,-0000001,-0000018,-0000006,+0000009,-0000078,+0004150,-0000776,+0000476,-0002315,15:00:43.071932
0.043176,+0000013,-0000022,+0000003,+0000007,-0000090,+0004152,-0000776,+0000476,-0002315,15:00:43.071932
0.043508,+0000016,-0000026,-0000013,+0000003,-0000094,+0004160,-0000776,+0000476,-0002315,15:00:43.071932
0.043848,+0000011,-0000040,-0000014,+0000030,-0000094,+0004148,-0000756,+0000470,-0002319,15:00:43.071932
0.044378,-0000005,-0000028,-0000014,+0000022,-0000089,+0004159,-0000756,+0000470,-0002319,15:00:43.071932
0.044572,+0000027,-0000026,-0000003,+0000022,-0000089,+0004159,-0000756,+0000470,-0002319,15:00:43.071932
0.044970,+0000005,-0000026,-0000002,+0000016,-0000082,+0004164,-0000766,+0000470,-0002317,15:00:43.071932
0.045221,+0000003,-0000026,-0000002,+0000016,-0000082,+0004172,-0000766,+0000470,-0002317,15:00:43.071932
0.045510,+0000008,-0000013,-0000010,+0000026,-0000088,+0004145,-0000766,+0000470,-0002317,15:00:43.071932
0.045838,+0000007,-0000031,-0000013,+0000021,-0000076,+0004167,-0000748,+0000472,-0002330,15:00:43.071932
0.046230,+0000000,-0000010,-0000008,+0000021,-0000089,+0004150,-0000748,+0000472,-0002330,15:00:43.071932
0.046504,+0000021,-0000039,-0000010,+0000016,-0000086,+0004153,-0000748,+0000472,-0002330,15:00:43.071932
0.046838,+0000025,-0000032,-0000010,+0000041,-0000091,+0004153,-0000756,+0000482,-0002332,15:00:43.071932
0.047170,+0000007,-0000015,-0000003,+0000035,-0000093,+0004145,-0000756,+0000482,-0002332,15:00:43.071932
0.047503,+0000005,-0000032,-0000003,+0000020,-0000061,+0004136,-0000756,+0000482,-0002332,15:00:43.071932
0.047934,+0000014,-0000024,-0000013,+0000010,-0000080,+0004165,-0000778,+0000466,-0002319,15:00:43.071932
0.048174,+0000014,-0000018,+0000000,+0000019,-0000072,+0004135,-0000778,+0000466,-0002319,15:00:43.071932
0.048746,+0000011,-0000042,-0000005,+0000024,-0000090,+0004148,-0000778,+0000466,-0002319,15:00:43.071932
0.048950,+0000013,+0000001,-0000002,+0000022,-0000069,+0004138,-0000754,+0000474,-0002327,15:00:43.071932
0.049188,+0000013,-0000002,-0000019,+0000036,-0000078,+0004163,-0000754,+0000474,-0002327,15:00:43.071932
0.049501,+0000009,-0000008,+0000001,+0000020,-0000071,+0004166,-0000754,+0000474,-0002327,15:00:43.071932
0.049835,+0000011,-0000017,-0000014,+0000027,-0000076,+0004173,-0000782,+0000478,-0002331,15:00:43.071932
0.050167,+0000020,-0000020,-0000002,+0000027,-0000071,+0004149,-0000782,+0000478,-0002331,15:00:43.071932
0.050502,+0000003,-0000016,-0000011,+0000014,-0000100,+0004159,-0000782,+0000478,-0002331,15:00:43.071932
0.050833,+0000016,-0000018,+0000000,+0000040,-0000084,+0004149,-0000768,+0000484,-0002334,15:00:43.071932
0.051167,+0000017,-0000026,-0000003,+0000040,-0000082,+0004145,-0000768,+0000484,-0002334,15:00:43.071932
0.051500,+0000030,-0000032,-0000024,+0000016,-0000078,+0004137,-0000768,+0000484,-0002334,15:00:43.071932
0.051832,+0000002,-0000042,+0000000,+0000027,-0000085,+0004158,-0000770,+0000478,-0002332,15:00:43.071932
0.052165,+0000013,-0000021,-0000017,+0000037,-0000080,+0004135,-0000770,+0000478,-0002332,15:00:43.071932
0.052499,+0000008,-0000004,+0000003,+0000020,-0000089,+0004158,-0000770,+0000478,-0002332,15:00:43.071932
0.052832,+0000000,-0000010,-0000004,+0000023,-0000090,+0004148,-0000746,+0000470,-0002331,15:00:43.071932
0.053164,+0000021,-0000018,-0000008,+0000016,-0000079,+0004137,-0000746,+0000470,-0002331,15:00:43.071932
0.053497,+0000029,-0000034,-0000018,+0000025,-0000083,+0004153,-0000746,+0000470,-0002331,15:00:43.072930
0.053830,+0000011,-0000032,-0000010,+0000022,-0000088,+0004156,-0000766,+0000468,-0002341,15:00:43.072930
0.054163,+0000000,-0000005,-0000003,+0000016,-0000090,+0004122,-0000766,+0000468,-0002341,15:00:43.072930
0.054496,+0000005,-0000007,+0000000,+0000044,-0000087,+0004153,-0000766,+0000468,-0002341,15:00:43.072930
0.054829,+0000018,-0000021,-0000010,+0000017,-0000089,+0004162,-0000766,+0000462,-0002290,15:00:43.072930
0.055162,+0000016,-0000034,-0000018,+0000007,-0000092,+0004148,-0000766,+0000462,-0002290,15:00:43.072930
0.055495,+0000022,-0000034,+0000003,-0000003,-0000082,+0004131,-0000766,+0000462,-0002290,15:00:43.072930
0.055828,+0000016,-0000039,-0000029,+0000019,-0000096,+0004158,-0000762,+0000466,-0002324,15:00:43.072930
0.056161,-0000004,+0000011,+0000000,+0000004,-0000059,+0004153,-0000762,+0000466,-0002324,15:00:43.072930
0.056494,+0000019,-0000020,-0000008,+0000025,-0000077,+0004158,-0000762,+0000466,-0002324,15:00:43.072930
0.056827,+0000016,-0000023,-0000005,+0000022,-0000081,+0004146,-0000762,+0000476,-0002306,15:00:43.072930
0.057160,+0000027,-0000032,-0000013,+0000048,-0000102,+0004151,-0000762,+0000476,-0002306,15:00:43.072930
0.057493,+0000018,-0000032,-0000011,+0000025,-0000074,+0004147,-0000762,+0000476,-0002306,15:00:43.072930
0.057826,+0000019,-0000021,-0000018,+0000029,-0000064,+0004151,-0000754,+0000468,-0002294,15:00:43.072930
0.058159,+0000005,-0000010,-0000010,+0000013,-0000096,+0004185,-0000754,+0000468,-0002294,15:00:43.072930
0.058492,+0000014,-0000014,+0000003,+0000027,-0000091,+0004159,-0000754,+0000468,-0002294,15:00:43.072930
0.058825,+0000006,-0000027,-0000011,+0000027,-0000090,+0004155,-0000756,+0000468,-0002333,15:00:43.072930
0.059158,+0000028,-0000040,-0000010,+0000024,-0000074,+0004158,-0000756,+0000468,-0002333,15:00:43.072930
0.059491,+0000011,-0000021,-0000014,+0000019,-0000079,+0004154,-0000756,+0000468,-0002333,15:00:43.072930
0.059824,+0000011,-0000026,-0000010,+0000047,-0000091,+0004130,-0000762,+0000480,-0002335,15:00:43.072930
0.060157,+0000011,-0000005,-0000007,+0000043,-0000090,+0004152,-0000762,+0000480,-0002335,15:00:43.072930
0.060490,+0000013,-0000030,-0000013,+0000021,-0000068,+0004149,-0000762,+0000480,-0002335,15:00:43.072930
0.060823,+0000005,-0000021,-0000007,+0000020,-0000092,+0004162,-0000756,+0000472,-0002333,15:00:43.072930
0.061156,+0000020,-0000032,-0000001,+0000030,-0000082,+0004152,-0000756,+0000472,-0002333,15:00:43.072930
0.061489,+0000026,-0000032,-0000023,+0000021,-0000107,+0004152,-0000756,+0000472,-0002333,15:00:43.072930
0.061822,+0000013,-0000021,-0000010,+0000020,-0000078,+0004152,-0000756,+0000472,-0002338,15:00:43.072930
0.062155,+0000002,-0000020,-0000006,+0000009,-0000093,+0004156,-0000756,+0000472,-0002338,15:00:43.072930
0.062488,+0000005,-0000005,-0000002,+0000005,-0000059,+0004158,-0000756,+0000472,-0002338,15:00:43.072930
0.062821,+0000030,-0000034,-0000007,+0000016,-0000064,+0004153,-0000766,+0000460,-0002313,15:00:43.072930
0.063154,+0000022,-0000037,-0000015,+0000010,-0000096,+0004146,-0000766,+0000460,-0002313,15:00:43.072930
0.063487,+0000017,-0000023,-0000015,+0000015,-0000073,+0004138,-0000766,+0000460,-0002313,15:00:43.072930
0.063820,+0000020,-0000023,-0000010,+0000013,-0000086,+0004144,-0000756,+0000462,-0002310,15:00:43.072930
0.064153,+0000002,-0000018,-0000015,+0000029,-0000084,+0004149,-0000756,+0000462,-0002310,15:00:43.072930
0.064486,+0000005,-0000018,+0000000,+0000012,-0000079,+0004163,-0000756,+0000462,-0002310,15:00:43.072930
0.064819,+0000019,-0000027,-0000006,+0000024,-0000069,+0004158,-0000766,+0000458,-0002346,15:00:43.072930
0.065152,+0000021,-0000055,-0000013,+0000009,-0000078,+0004171,-0000766,+0000458,-0002346,15:00:43.072930
0.065485,+0000005,-0000017,-0000011,+0000022,-0000086,+0004147,-0000766,+0000458,-0002346,15:00:43.072930
0.065818,+0000024,-0000022,-0000002,+0000014,-0000085,+0004155,-0000756,+0000478,-0002353,15:00:43.072930
0.066151,+0000005,-0000019,-0000015,+0000024,-0000112,+0004151,-0000756,+0000478,-0002353,15:00:43.072930
0.066484,+0000002,-0000005,+0000006,+0000018,-0000073,+0004147,-0000756,+0000478,-0002353,15:00:43.072930
0.066817,+0000022,-0000032,-0000014,+0000028,-0000081,+0004151,-0000754,+0000452,-0002301,15:00:43.072930
0.067150,+0000011,-0000029,-0000002,+0000010,-0000080,+0004146,-0000754,+0000452,-0002301,15:00:43.072930
0.067483,+0000019,-0000027,-0000021,+0000009,-0000104,+0004155,-0000754,+0000452,-0002301,15:00:43.072930
0.067816,+0000002,-0000015,+0000003,+0000026,-0000091,+0004129,-0000760,+0000448,-0002327,15:00:43.073932
0.068149,+0000003,+0000003,+0000006,+0000038,-0000089,+0004133,-0000760,+0000448,-0002327,15:00:43.073932
0.068482,+0000005,-0000021,-0000007,+0000040,-0000063,+0004160,-0000760,+0000448,-0002327,15:00:43.073932
0.068815,+0000022,-0000030,-0000008,+0000018,-0000075,+0004146,-0000766,+0000468,-0002329,15:00:43.073932
0.069148,+0000013,-0000031,-0000003,+0000000,-0000078,+0004149,-0000766,+0000468,-0002329,15:00:43.073932
0.069481,+0000025,-0000044,-0000016,+0000008,-0000089,+0004154,-0000766,+0000468,-0002329,15:00:43.076104
0.069814,+0000001,-0000003,-0000008,+0000017,-0000092,+0004139,-0000756,+0000480,-0002328,15:00:43.076104
0.070147,-0000001,-0000011,-0000015,+0000016,-0000089,+0004132,-0000756,+0000480,-0002328,15:00:43.076104
0.070480,+0000024,-0000027,+0000001,+0000000,-0000086,+0004160,-0000756,+0000480,-0002328,15:00:43.076104
0.070813,+0000016,-0000034,-0000016,+0000037,-0000074,+0004147,-0000762,+0000454,-0002335,15:00:43.076104
0.071146,+0000027,-0000034,-0000008,+0000019,-0000092,+0004140,-0000762,+0000454,-0002335,15:00:43.076104
0.071479,+0000016,-0000008,-0000004,+0000026,-0000088,+0004151,-0000762,+0000454,-0002335,15:00:43.076104
0.071812,-0000011,-0000018,-0000015,+0000012,-0000098,+0004144,-0000762,+0000484,-0002331,15:00:43.076104
0.072145,+0000016,-0000005,+0000003,+0000039,-0000076,+0004150,-0000762,+0000484,-0002331,15:00:43.076104
0.072478,+0000018,-0000034,-0000010,+0000022,-0000065,+0004165,-0000762,+0000484,-0002331,15:00:43.076104
0.072811,+0000016,-0000026,-0000004,+0000021,-0000082,+0004146,-0000766,+0000464,-0002359,15:00:43.076104
0.073144,+0000029,-0000021,-0000016,+0000019,-0000060,+0004151,-0000766,+0000464,-0002359,15:00:43.076104
0.073477,+0000000,-0000008,-0000007,+0000021,-0000089,+0004156,-0000766,+0000464,-0002359,15:00:43.076104
0.073810,+0000006,-0000024,-0000013,+0000032,-0000072,+0004168,-0000756,+0000464,-0002332,15:00:43.076104
0.074143,+0000002,-0000009,+0000004,+0000012,-0000083,+0004138,-0000756,+0000464,-0002332,15:00:43.076104
0.074476,+0000019,-0000026,-0000016,-0000008,-0000094,+0004157,-0000756,+0000464,-0002332,15:00:43.076104
0.074809,+0000008,-0000030,-0000005,+0000010,-0000088,+0004145,-0000748,+0000466,-0002341,15:00:43.076104
0.075142,+0000022,-0000026,-0000013,+0000014,-0000095,+0004155,-0000748,+0000466,-0002341,15:00:43.076104
0.075475,+0000011,-0000029,-0000010,+0000016,-0000103,+0004145,-0000748,+0000466,-0002341,15:00:43.076104
0.075808,+0000018,-0000003,-0000011,+0000043,-0000086,+0004159,-0000752,+0000472,-0002306,15:00:43.076104
0.076141,-0000002,-0000016,+0000002,+0000028,-0000066,+0004134,-0000752,+0000472,-0002306,15:00:43.076104
0.076474,+0000014,-0000029,-0000015,+0000040,-0000087,+0004138,-0000752,+0000472,-0002306,15:00:43.076104
0.076807,+0000019,-0000034,+0000003,+0000024,-0000077,+0004149,-0000762,+0000460,-0002318,15:00:43.076104
0.077140,+0000013,-0000035,-0000013,+0000035,-0000068,+0004142,-0000762,+0000460,-0002318,15:00:43.076104
0.077473,+0000016,-0000018,-0000018,+0000017,-0000073,+0004155,-0000762,+0000460,-0002318,15:00:43.076104
0.077806,+0000006,-0000005,-0000003,+0000044,-0000097,+0004165,-0000758,+0000452,-0002342,15:00:43.076104
0.078139,+0000008,-0000026,-0000011,+0000012,-0000086,+0004170,-0000758,+0000452,-0002342,15:00:43.076104
0.078472,+0000022,-0000044,-0000010,+0000019,-0000101,+0004129,-0000758,+0000452,-0002342,15:00:43.080106
0.078805,+0000029,-0000016,+0000001,+0000018,-0000090,+0004154,-0000750,+0000470,-0002329,15:00:43.080106
0.079138,+0000033,-0000037,-0000023,+0000033,-0000089,+0004148,-0000750,+0000470,-0002329,15:00:43.080106
0.079471,+0000008,-0000011,+0000003,+0000027,-0000078,+0004160,-0000750,+0000470,-0002329,15:00:43.080106
0.079804,+0000011,-0000019,-0000013,+0000032,-0000076,+0004134,-0000746,+0000478,-0002313,15:00:43.080106
0.080137,-0000004,-0000016,-0000005,+0000019,-0000093,+0004175,-0000746,+0000478,-0002313,15:00:43.080106
0.080470,+0000020,-0000032,-0000008,+0000005,-0000080,+0004166,-0000746,+0000478,-0002313,15:00:43.080106
0.080803,+0000022,-0000047,-0000016,+0000032,-0000071,+0004149,-0000768,+0000480,-0002339,15:00:43.080106
0.081136,+0000025,-0000031,-0000007,+0000014,-0000074,+0004141,-0000768,+0000480,-0002339,15:00:43.080106
0.081469,-0000005,-0000026,-0000024,+0000035,-0000087,+0004152,-0000768,+0000480,-0002339,15:00:43.080106
0.081802,+0000000,-0000014,-0000011,+0000029,-0000107,+0004160,-0000756,+0000484,-0002337,15:00:43.080106
0.082135,+0000017,-0000019,-0000003,+0000035,-0000064,+0004152,-0000756,+0000484,-0002337,15:00:43.080106
0.082468,+0000019,-0000048,-0000017,+0000027,-0000074,+0004155,-0000756,+0000484,-0002337,15:00:43.080106
0.082801,+0000019,-0000024,+0000003,+0000028,-0000073,+0004157,-0000752,+0000464,-0002332,15:00:43.080106
0.083134,+0000031,-0000035,-0000014,+0000009,-0000103,+0004146,-0000752,+0000464,-0002332,15:00:43.080106
0.083467,+0000006,-0000008,-0000008,+0000005,-0000077,+0004145,-0000752,+0000464,-0002332,15:00:43.080106
0.083800,-0000004,-0000002,+0000005,+0000028,-0000075,+0004138,-0000754,+0000464,-0002350,15:00:43.080106
0.084133,+0000024,-0000021,-0000011,+0000019,-0000089,+0004136,-0000754,+0000464,-0002350,15:00:43.080106
0.084466,+0000011,-0000049,-0000017,+0000016,-0000084,+0004147,-0000754,+0000464,-0002350,15:00:43.080106
0.084799,+0000025,-0000039,+0000001,+0000018,-0000091,+0004157,-0000760,+0000478,-0002328,15:00:43.080106
0.085132,+0000008,-0000006,-0000003,+0000030,-0000066,+0004157,-0000760,+0000478,-0002328,15:00:43.080106
0.085465,+0000005,-0000021,-0000015,+0000026,-0000077,+0004147,-0000760,+0000478,-0002328,15:00:43.080106
0.085798,+0000016,-0000026,-0000013,+0000013,-0000069,+0004140,-0000752,+0000474,-0002347,15:00:43.080106
0.086131,+0000013,-0000015,+0000006,+0000018,-0000074,+0004137,-0000752,+0000474,-0002347,15:00:43.080106
0.086464,+0000024,-0000043,-0000013,+0000020,-0000095,+0004140,-0000752,+0000474,-0002347,15:00:43.080106
0.086797,+0000030,-0000035,-0000010,+0000024,-0000072,+0004151,-0000778,+0000472,-0002333,15:00:43.080106
0.087130,+0000022,-0000023,-0000016,+0000019,-0000096,+0004152,-0000778,+0000472,-0002333,15:00:43.080106
0.087463,+0000005,-0000005,-0000003,+0000041,-0000083,+0004135,-0000778,+0000472,-0002333,15:00:43.080106
0.087796,+0000007,-0000016,-0000019,+0000007,-0000071,+0004126,-0000754,+0000476,-0002349,15:00:43.082105
0.088129,+0000015,-0000037,-0000002,+0000031,-0000081,+0004169,-0000754,+0000476,-0002349,15:00:43.082105
0.088462,+0000014,-0000056,-0000029,+0000036,-0000106,+0004149,-0000754,+0000476,-0002349,15:00:43.082105
0.088795,+0000013,-0000020,+0000001,+0000026,-0000066,+0004135,-0000748,+0000450,-0002321,15:00:43.082105
0.089128,+0000005,-0000012,-0000007,+0000012,-0000074,+0004152,-0000748,+0000450,-0002321,15:00:43.082105
0.089461,+0000018,-0000011,-0000016,+0000028,-0000071,+0004139,-0000748,+0000450,-0002321,15:00:43.082105
0.089794,-0000005,-0000018,+0000004,+0000016,-0000074,+0004156,-0000780,+0000456,-0002314,15:00:43.082105
0.090127,+0000016,-0000019,+0000000,+0000035,-0000092,+0004156,-0000780,+0000456,-0002314,15:00:43.082105
0.090460,+0000011,-0000026,-0000011,+0000012,-0000098,+0004141,-0000780,+0000456,-0002314,15:00:43.082105
0.090793,+0000017,-0000024,-0000018,-0000001,-0000084,+0004165,-0000760,+0000472,-0002301,15:00:43.082105
0.091126,+0000013,-0000027,+0000001,+0000003,-0000080,+0004170,-0000760,+0000472,-0002301,15:00:43.082105
0.091459,+0000000,-0000007,-0000016,+0000039,-0000085,+0004144,-0000760,+0000472,-0002301,15:00:43.082105
0.091792,+0000019,-0000013,-0000007,+0000032,-0000067,+0004154,-0000738,+0000456,-0002340,15:00:43.082105
0.092125,+0000024,-0000032,-0000011,+0000013,-0000108,+0004157,-0000738,+0000456,-0002340,15:00:43.082105
0.092458,+0000036,-0000035,-0000008,+0000024,-0000087,+0004139,-0000738,+0000456,-0002340,15:00:43.082105
0.092791,-0000005,-0000031,-0000004,+0000015,-0000091,+0004142,-0000758,+0000470,-0002344,15:00:43.082105
0.093126,+0000022,-0000026,-0000016,+0000021,-0000098,+0004160,-0000758,+0000470,-0002344,15:00:43.119255
0.093457,-0000006,-0000007,+0000000,+0000030,-0000093,+0004150,-0000758,+0000470,-0002344,15:00:43.119255
0.093796,-0000004,-0000002,+0000000,+0000023,-0000096,+0004154,-0000754,+0000474,-0002342,15:00:43.119255
0.094377,+0000021,-0000023,-0000016,+0000025,-0000083,+0004140,-0000754,+0000474,-0002342,15:00:43.119255
0.094597,+0000021,-0000010,+0000009,+0000030,-0000089,+0004166,-0000754,+0000474,-0002342,15:00:43.119255
0.094796,+0000009,-0000010,+0000009,+0000030,-0000089,+0004166,-0000774,+0000482,-0002333,15:00:43.119255
0.095131,+0000013,-0000026,-0000011,+0000026,-0000076,+0004151,-0000774,+0000482,-0002333,15:00:43.119255
0.095457,+0000010,-0000028,+0000003,+0000036,-0000082,+0004159,-0000774,+0000482,-0002333,15:00:43.119255
0.095791,+0000019,-0000017,-0000008,+0000023,-0000086,+0004144,-0000764,+0000474,-0002320,15:00:43.119255
0.096125,+0000013,-0000018,-0000016,+0000026,-0000096,+0004156,-0000764,+0000474,-0002320,15:00:43.119255
0.096455,+0000020,-0000040,-0000007,+0000028,-0000100,+0004155,-0000764,+0000474,-0002320,15:00:43.119255
0.096787,-0000006,-0000021,-0000008,+0000008,-0000075,+0004140,-0000766,+0000458,-0002363,15:00:43.119255
0.097122,-0000006,-0000003,-0000007,+0000032,-0000071,+0004150,-0000766,+0000458,-0002363,15:00:43.119255
0.097453,-0000001,-0000005,+0000001,+0000021,-0000086,+0004152,-0000766,+0000458,-0002363,15:00:43.119255
0.097786,+0000022,-0000032,-0000015,+0000020,-0000074,+0004143,-0000756,+0000476,-0002329,15:00:43.119255
0.098119,+0000016,-0000039,-0000003,+0000018,-0000057,+0004145,-0000756,+0000476,-0002329,15:00:43.119255
0.098452,+0000022,-0000031,-0000014,+0000021,-0000106,+0004157,-0000756,+0000476,-0002329,15:00:43.119255
0.098786,+0000011,-0000020,-0000010,+0000028,-0000083,+0004173,-0000764,+0000474,-0002331,15:00:43.119255
0.099126,+0000000,-0000032,-0000010,+0000027,-0000101,+0004145,-0000764,+0000474,-0002331,15:00:43.119255
0.099452,+0000033,-0000025,-0000011,+0000028,-0000090,+0004140,-0000764,+0000474,-0002331,15:00:43.119255
0.099784,+0000013,-0000039,-0000005,+0000029,-0000079,+0004139,-0000762,+0000478,-0002333,15:00:43.119255
0.100118,+0000019,-0000040,-0000010,+0000022,-0000097,+0004143,-0000762,+0000478,-0002333,15:00:43.121538
0.100451,+0000022,-0000026,-0000007,+0000005,-0000100,+0004142,-0000762,+0000478,-0002333,15:00:43.121538
0.100784,+0000013,-0000005,-0000008,+0000006,-0000062,+0004170,-0000760,+0000472,-0002302,15:00:43.121538
0.101116,-0000003,-0000026,-0000016,+0000021,-0000096,+0004158,-0000760,+0000472,-0002302,15:00:43.121538
0.101450,+0000019,-0000012,+0000006,+0000018,-0000085,+0004141,-0000760,+0000472,-0002302,15:00:43.121538
0.101782,+0000008,-0000016,-0000010,+0000026,-0000068,+0004144,-0000742,+0000470,-0002330,15:00:43.121538
0.102116,+0000019,-0000048,-0000021,+0000020,-0000083,+0004148,-0000742,+0000470,-0002330,15:00:43.121538
0.102448,+0000010,-0000019,+0000003,+0000016,-0000073,+0004147,-0000742,+0000470,-0002330,15:00:43.121538
0.102784,+0000018,-0000023,-0000016,+0000009,-0000076,+0004151,-0000750,+0000464,-0002316,15:00:43.121538
0.103114,+0000013,-0000029,-0000013,+0000023,-0000091,+0004148,-0000750,+0000464,-0002316,15:00:43.121538
0.103447,+0000008,-0000015,+0000001,+0000017,-0000087,+0004150,-0000750,+0000464,-0002316,15:00:43.121538
0.103780,+0000021,-0000029,-0000013,+0000021,-0000100,+0004168,-0000742,+0000472,-0002344,15:00:43.121538
0.104113,+0000006,-0000024,+0000006,+0000035,-0000082,+0004163,-0000742,+0000472,-0002344,15:00:43.121538
0.104446,+0000024,-0000032,-0000032,+0000013,-0000090,+0004152,-0000742,+0000472,-0002344,15:00:43.121538
0.104779,+0000008,-0000020,-0000005,+0000021,-0000082,+0004147,-0000756,+0000472,-0002307,15:00:43.121538
0.105112,+0000011,-0000018,+0000000,+0000026,-0000074,+0004153,-0000756,+0000472,-0002307,15:00:43.121538
0.105445,-0000003,-0000007,-0000007,+0000015,-0000073,+0004180,-0000756,+0000472,-0002307,15:00:43.121538
0.105778,+0000002,-0000026,-0000007,+0000028,-0000060,+0004147,-0000768,+0000486,-0002331,15:00:43.121538
0.106111,+0000028,-0000056,-0000021,+0000018,-0000100,+0004154,-0000768,+0000486,-0002331,15:00:43.121538
0.106444,+0000005,-0000010,-0000008,+0000020,-0000066,+0004145,-0000768,+0000486,-0002331,15:00:43.121538
0.106777,+0000008,-0000031,-0000005,+0000012,-0000075,+0004147,-0000770,+0000476,-0002334,15:00:43.121538
0.107110,-0000003,-0000008,-0000007,+0000026,-0000083,+0004162,-0000770,+0000476,-0002334,15:00:43.121538
0.107443,+0000002,-0000016,-0000005,+0000013,-0000088,+0004162,-0000770,+0000476,-0002334,15:00:43.121538
0.107776,+0000016,-0000031,-0000004,+0000018,-0000062,+0004134,-0000760,+0000480,-0002340,15:00:43.121538
0.108109,+0000021,-0000034,-0000019,+0000038,-0000069,+0004157,-0000760,+0000480,-0002340,15:00:43.121538
0.108442,+0000020,-0000026,-0000008,+0000033,-0000073,+0004166,-0000760,+0000480,-0002340,15:00:43.121538
0.108775,+0000011,-0000021,-0000023,+0000026,-0000083,+0004153,-0000772,+0000470,-0002321,15:00:43.121538
0.109108,+0000011,+0000001,+0000004,+0000021,-0000089,+0004165,-0000772,+0000470,-0002321,15:00:43.121538
0.109441,+0000011,-0000024,-0000012,+0000025,-0000078,+0004176,-0000772,+0000470,-0002321,15:00:43.121538
0.109774,+0000014,-0000035,-0000007,+0000024,-0000070,+0004161,-0000772,+0000464,-0002331,15:00:43.121538
0.110107,+0000024,-0000047,-0000005,+0000018,-0000071,+0004177,-0000772,+0000464,-0002331,15:00:43.121538
0.110440,+0000025,-0000013,-0000016,+0000037,-0000088,+0004154,-0000772,+0000464,-0002331,15:00:43.121538
0.110773,-0000006,+0000003,+0000002,+0000017,-0000071,+0004157,-0000750,+0000456,-0002341,15:00:43.121538
0.111106,+0000008,-0000013,-0000016,+0000036,-0000069,+0004138,-0000750,+0000456,-0002341,15:00:43.121538
0.111439,+0000013,-0000026,-0000004,+0000018,-0000070,+0004129,-0000750,+0000456,-0002341,15:00:43.122543
0.111772,+0000025,-0000045,-0000008,+0000004,-0000092,+0004131,-0000768,+0000474,-0002335,15:00:43.122543
0.112105,+0000016,-0000032,-0000010,+0000016,-0000080,+0004144,-0000768,+0000474,-0002335,15:00:43.122543
0.112438,+0000018,-0000019,-0000019,+0000015,-0000076,+0004147,-0000768,+0000474,-0002335,15:00:43.122543
0.112771,+0000010,-0000028,+0000006,+0000004,-0000086,+0004148,-0000744,+0000464,-0002325,15:00:43.122543
0.113104,+0000011,-0000005,-0000008,+0000014,-0000103,+0004143,-0000744,+0000464,-0002325,15:00:43.122543
0.113437,+0000019,-0000035,-0000007,+0000025,-0000116,+0004155,-0000744,+0000464,-0002325,15:00:43.122543
0.113770,+0000014,-0000035,+0000012,+0000026,-0000094,+0004132,-0000768,+0000460,-0002325,15:00:43.122543
0.114103,+0000018,-0000021,-0000005,+0000016,-0000081,+0004150,-0000768,+0000460,-0002325,15:00:43.122543
0.114436,+0000013,-0000013,-0000010,+0000015,-0000082,+0004141,-0000768,+0000460,-0002325,15:00:43.122543
0.114769,+0000006,-0000013,+0000004,+0000020,-0000081,+0004140,-0000746,+0000460,-0002327,15:00:43.122543
0.115102,+0000016,-0000026,-0000015,+0000012,-0000086,+0004153,-0000746,+0000460,-0002327,15:00:43.122543
0.115435,+0000011,-0000028,-0000005,+0000027,-0000083,+0004121,-0000746,+0000460,-0002327,15:00:43.122543
0.115768,+0000024,-0000027,-0000010,+0000017,-0000084,+0004141,-0000760,+0000466,-0002319,15:00:43.122543
0.116101,+0000028,-0000045,-0000012,+0000009,-0000088,+0004167,-0000760,+0000466,-0002319,15:00:43.122543
0.116434,+0000020,-0000021,-0000011,+0000024,-0000096,+0004148,-0000760,+0000466,-0002319,15:00:43.122543
0.116767,-0000002,-0000007,+0000006,+0000042,-0000089,+0004161,-0000764,+0000458,-0002308,15:00:43.122543
0.117100,+0000013,-0000024,-0000016,+0000012,-0000079,+0004155,-0000764,+0000458,-0002308,15:00:43.122543
0.117433,+0000005,-0000027,-0000002,+0000006,-0000085,+0004158,-0000764,+0000458,-0002308,15:00:43.122543
0.117766,+0000022,-0000040,-0000013,+0000015,-0000095,+0004154,-0000766,+0000476,-0002303,15:00:43.122543
0.118099,+0000016,-0000027,-0000011,+0000018,-0000080,+0004163,-0000766,+0000476,-0002303,15:00:43.122543
0.118435,+0000008,-0000007,-0000007,+0000005,-0000100,+0004162,-0000766,+0000476,-0002303,15:00:43.122543
0.118765,+0000019,-0000024,-0000013,+0000022,-0000080,+0004157,-0000766,+0000460,-0002347,15:00:43.122543
0.119098,+0000013,-0000024,-0000005,+0000027,-0000079,+0004155,-0000766,+0000460,-0002347,15:00:43.122543
0.119431,+0000010,-0000032,-0000013,+0000005,-0000080,+0004165,-0000766,+0000460,-0002347,15:00:43.122543
0.119764,+0000027,-0000034,-0000021,+0000025,-0000073,+0004147,-0000764,+0000472,-0002329,15:00:43.122543
0.120097,+0000014,-0000018,+0000006,+0000016,-0000095,+0004145,-0000764,+0000472,-0002329,15:00:43.122543
0.120430,+0000016,-0000019,-0000015,+0000025,-0000071,+0004161,-0000764,+0000472,-0002329,15:00:43.122543
0.120763,+0000002,-0000008,-0000016,+0000031,-0000067,+0004134,-0000768,+0000474,-0002330,15:00:43.122543
0.121096,+0000014,-0000026,-0000010,+0000032,-0000079,+0004152,-0000768,+0000474,-0002330,15:00:43.122543
0.121429,+0000005,-0000029,-0000004,+0000008,-0000068,+0004146,-0000768,+0000474,-0002330,15:00:43.122543
0.121762,+0000021,-0000043,-0000011,+0000038,-0000084,+0004162,-0000752,+0000478,-0002316,15:00:43.122543
0.122095,+0000006,-0000016,-0000013,+0000034,-0000076,+0004139,-0000752,+0000478,-0002316,15:00:43.122543
0.122428,+0000016,-0000030,-0000019,+0000026,-0000076,+0004140,-0000752,+0000478,-0002316,15:00:43.122543
0.122761,-0000003,+0000005,+0000001,+0000027,-0000091,+0004142,-0000760,+0000462,-0002321,15:00:43.122543
0.123094,+0000014,-0000032,-0000024,+0000019,-0000060,+0004151,-0000760,+0000462,-0002321,15:00:43.122543
0.123427,+0000019,-0000019,+0000008,+0000016,-0000069,+0004150,-0000760,+0000462,-0002321,15:00:43.122543
0.123760,+0000014,-0000057,-0000024,+0000016,-0000081,+0004154,-0000772,+0000474,-0002313,15:00:43.122543
0.124093,+0000024,-0000024,+0000006,+0000043,-0000094,+0004146,-0000772,+0000474,-0002313,15:00:43.122543
0.124426,-0000001,-0000018,-0000013,+0000029,-0000084,+0004145,-0000772,+0000474,-0002313,15:00:43.122543
0.124759,+0000011,-0000007,+0000004,+0000014,-0000112,+0004160,-0000742,+0000456,-0002330,15:00:43.122543
0.125092,+0000028,-0000033,-0000007,+0000017,-0000082,+0004151,-0000742,+0000456,-0002330,15:00:43.122543
0.125425,+0000026,-0000039,-0000008,+0000029,-0000077,+0004151,-0000742,+0000456,-0002330,15:00:43.122543
0.125758,+0000022,-0000036,-0000016,+0000039,-0000090,+0004147,-0000768,+0000448,-0002341,15:00:43.122543
0.126091,+0000013,-0000021,-0000008,+0000020,-0000059,+0004157,-0000768,+0000448,-0002341,15:00:43.122543
0.126424,+0000019,-0000005,-0000005,+0000035,-0000102,+0004151,-0000768,+0000448,-0002341,15:00:43.122543
0.126757,+0000006,-0000016,-0000013,+0000023,-0000105,+0004128,-0000754,+0000460,-0002333,15:00:43.122543
0.127090,+0000014,-0000039,-0000005,+0000028,-0000097,+0004135,-0000754,+0000460,-0002333,15:00:43.122543
0.127423,+0000005,-0000007,-0000003,+0000024,-0000082,+0004144,-0000754,+0000460,-0002333,15:00:43.122543
0.127756,+0000028,-0000013,-0000011,+0000020,-0000101,+0004150,-0000762,+0000454,-0002339,15:00:43.122543
0.128089,+0000011,-0000004,-0000005,+0000000,-0000097,+0004165,-0000762,+0000454,-0002339,15:00:43.122543
0.128422,+0000008,-0000016,-0000002,+0000013,-0000096,+0004151,-0000762,+0000454,-0002339,15:00:43.122543
0.128755,+0000000,-0000005,+0000000,+0000026,-0000079,+0004152,-0000768,+0000452,-0002335,15:00:43.122543
0.129088,+0000016,-0000030,-0000013,+0000010,-0000096,+0004127,-0000768,+0000452,-0002335,15:00:43.122543
0.129421,+0000027,-0000039,+0000000,+0000020,-0000091,+0004145,-0000768,+0000452,-0002335,15:00:43.122543
0.129754,+0000019,-0000034,-0000013,+0000033,-0000098,+0004150,-0000770,+0000468,-0002333,15:00:43.122543
0.130087,+0000011,-0000028,-0000005,+0000011,-0000106,+0004138,-0000770,+0000468,-0002333,15:00:43.122543
0.130420,+0000008,-0000013,-0000007,+0000017,-0000090,+0004144,-0000770,+0000468,-0002333,15:00:43.122543
0.130753,+0000016,-0000018,-0000013,+0000012,-0000082,+0004151,-0000762,+0000468,-0002349,15:00:43.122543
0.131086,+0000000,-0000024,-0000029,+0000026,-0000085,+0004142,-0000762,+0000468,-0002349,15:00:43.122543
0.131419,+0000008,-0000032,-0000002,+0000018,-0000100,+0004178,-0000762,+0000468,-0002349,15:00:43.122543
0.131752,+0000017,-0000031,-0000005,+0000030,-0000062,+0004160,-0000746,+0000476,-0002331,15:00:43.122543
0.132085,+0000016,-0000026,-0000022,+0000020,-0000092,+0004138,-0000746,+0000476,-0002331,15:00:43.122543
0.132418,-0000003,-0000006,-0000002,+0000020,-0000092,+0004155,-0000746,+0000476,-0002331,15:00:43.122543
0.132751,+0000005,-0000004,-0000002,+0000014,-0000070,+0004175,-0000774,+0000476,-0002340,15:00:43.122543
0.133084,+0000041,-0000031,-0000005,+0000038,-0000092,+0004176,-0000774,+0000476,-0002340,15:00:43.122543
0.133417,+0000003,-0000043,-0000008,+0000014,-0000086,+0004163,-0000774,+0000476,-0002340,15:00:43.122543
0.133750,+0000035,-0000029,-0000016,+0000025,-0000085,+0004161,-0000778,+0000460,-0002349,15:00:43.122543
0.134083,-0000004,-0000019,-0000008,+0000020,-0000094,+0004150,-0000778,+0000460,-0002349,15:00:43.122543
0.134416,+0000019,-0000019,-0000023,+0000010,-0000076,+0004153,-0000778,+0000460,-0002349,15:00:43.122543
0.134749,+0000008,-0000007,-0000007,+0000018,-0000063,+0004170,-0000760,+0000456,-0002341,15:00:43.122543
0.135082,+0000022,-0000032,-0000005,+0000031,-0000066,+0004157,-0000760,+0000456,-0002341,15:00:43.122543
0.135415,+0000019,-0000040,-0000018,+0000030,-0000060,+0004148,-0000760,+0000456,-0002341,15:00:43.122543
0.135748,+0000016,-0000034,-0000005,+0000006,-0000077,+0004134,-0000742,+0000476,-0002300,15:00:43.122543
0.136081,+0000016,-0000019,-0000011,+0000029,-0000082,+0004146,-0000742,+0000476,-0002300,15:00:43.122543
0.136414,+0000008,+0000006,+0000010,+0000039,-0000066,+0004162,-0000742,+0000476,-0002300,15:00:43.122543
0.136747,+0000010,-0000030,-0000013,+0000026,-0000074,+0004162,-0000754,+0000474,-0002322,15:00:43.122543
0.137080,+0000016,-0000035,-0000018,+0000014,-0000077,+0004147,-0000754,+0000474,-0002322,15:00:43.122543
0.137413,+0000030,-0000053,-0000016,+0000006,-0000071,+0004145,-0000754,+0000474,-0002322,15:00:43.122543
0.137746,+0000008,-0000022,-0000007,+0000023,-0000068,+0004159,-0000746,+0000476,-0002322,15:00:43.122543
0.138079,-0000003,+0000000,-0000002,+0000008,-0000073,+0004139,-0000746,+0000476,-0002322,15:00:43.122543
0.138412,+0000020,-0000021,-0000003,+0000006,-0000092,+0004159,-0000746,+0000476,-0002322,15:00:43.122543
0.138745,-0000002,-0000018,-0000005,+0000022,-0000070,+0004161,-0000744,+0000448,-0002318,15:00:43.122543
0.139078,+0000025,-0000043,-0000013,+0000022,-0000074,+0004161,-0000744,+0000448,-0002318,15:00:43.122543
0.139411,+0000016,-0000024,+0000003,+0000032,-0000082,+0004157,-0000744,+0000448,-0002318,15:00:43.122543
0.139744,+0000004,-0000011,-0000001,+0000027,-0000103,+0004166,-0000776,+0000464,-0002336,15:00:43.122543
0.140077,+0000008,-0000011,+0000003,+0000012,-0000085,+0004156,-0000776,+0000464,-0002336,15:00:43.122543
0.140410,+0000006,-0000023,-0000016,+0000031,-0000099,+0004159,-0000776,+0000464,-0002336,15:00:43.123547
0.140743,+0000019,-0000028,+0000003,+0000023,-0000102,+0004139,-0000756,+0000452,-0002330,15:00:43.123547
0.141076,+0000011,-0000034,-0000013,+0000011,-0000064,+0004139,-0000756,+0000452,-0002330,15:00:43.123547
0.141409,+0000019,-0000029,-0000013,+0000015,-0000072,+0004136,-0000756,+0000452,-0002330,15:00:43.123547
0.141742,-0000009,-0000005,+0000006,+0000028,-0000074,+0004140,-0000736,+0000460,-0002317,15:00:43.123547
0.142075,+0000022,-0000012,-0000016,+0000038,-0000095,+0004142,-0000736,+0000460,-0002317,15:00:43.123547
0.142408,+0000005,-0000022,-0000011,+0000013,-0000086,+0004153,-0000736,+0000460,-0002317,15:00:43.123547
0.142741,+0000024,-0000013,-0000007,+0000019,-0000112,+0004153,-0000766,+0000464,-0002324,15:00:43.123547
0.143074,+0000019,-0000034,-0000013,+0000032,-0000110,+0004141,-0000766,+0000464,-0002324,15:00:43.170012
0.143408,+0000019,-0000029,-0000011,+0000015,-0000069,+0004134,-0000766,+0000464,-0002324,15:00:43.170012
0.143744,+0000011,-0000026,-0000018,+0000004,-0000087,+0004149,-0000778,+0000466,-0002304,15:00:43.170012
0.144456,+0000003,-0000015,-0000011,+0000016,-0000100,+0004151,-0000778,+0000466,-0002304,15:00:43.170012
0.144867,+0000005,-0000011,-0000016,+0000036,-0000080,+0004131,-0000778,+0000466,-0002304,15:00:43.170012
0.145238,+0000025,-0000034,+0000001,+0000017,-0000084,+0004134,-0000754,+0000452,-0002338,15:00:43.170012
0.145495,-0000005,-0000023,-0000009,+0000029,-0000084,+0004134,-0000754,+0000452,-0002338,15:00:43.170012
0.145787,+0000009,-0000011,-0000018,+0000043,-0000088,+0004157,-0000754,+0000452,-0002338,15:00:43.170012
0.146074,+0000005,-0000023,+0000007,+0000041,-0000096,+0004157,-0000762,+0000462,-0002344,15:00:43.170012
0.146406,+0000017,-0000020,-0000005,+0000025,-0000081,+0004145,-0000762,+0000462,-0002344,15:00:43.170012
0.146798,+0000022,-0000018,+0000000,+0000018,-0000082,+0004143,-0000762,+0000462,-0002344,15:00:43.170012
0.147075,+0000027,-0000032,-0000023,+0000033,-0000092,+0004146,-0000772,+0000468,-0002330,15:00:43.170012
0.147405,+0000000,-0000016,-0000007,+0000013,-0000089,+0004162,-0000772,+0000468,-0002330,15:00:43.170012
0.147768,+0000005,-0000013,+0000015,+0000008,-0000107,+0004145,-0000772,+0000468,-0002330,15:00:43.170012
0.148144,+0000004,-0000013,+0000007,+0000035,-0000089,+0004154,-0000760,+0000454,-0002324,15:00:43.170012
0.148409,+0000002,-0000001,-0000009,+0000019,-0000071,+0004165,-0000760,+0000454,-0002324,15:00:43.170012
0.148735,+0000008,-0000011,+0000001,+0000031,-0000086,+0004166,-0000760,+0000454,-0002324,15:00:43.170012
0.149070,+0000030,-0000035,-0000024,+0000014,-0000076,+0004143,-0000752,+0000468,-0002320,15:00:43.170012
0.149402,+0000008,-0000037,+0000001,+0000007,-0000074,+0004154,-0000752,+0000468,-0002320,15:00:43.170012
0.149736,+0000021,-0000023,-0000015,+0000010,-0000070,+0004159,-0000752,+0000468,-0002320,15:00:43.170012
0.150068,+0000014,-0000012,-0000005,+0000040,-0000100,+0004164,-0000752,+0000456,-0002319,15:00:43.170012
0.150402,+0000003,-0000018,-0000013,+0000025,-0000100,+0004160,-0000752,+0000456,-0002319,15:00:43.170012
0.150733,+0000027,-0000026,-0000005,+0000033,-0000085,+0004157,-0000752,+0000456,-0002319,15:00:43.170012
0.151068,+0000027,-0000043,-0000002,+0000027,-0000087,+0004146,-0000764,+0000460,-0002342,15:00:43.170012
0.151399,+0000006,-0000029,-0000010,+0000026,-0000097,+0004153,-0000764,+0000460,-0002342,15:00:43.170012
0.151741,+0000009,-0000013,+0000008,+0000029,-0000071,+0004157,-0000764,+0000460,-0002342,15:00:43.170012
0.152065,+0000019,-0000037,-0000011,+0000034,-0000079,+0004137,-0000754,+0000476,-0002353,15:00:43.170012
0.152398,+0000021,-0000034,-0000013,+0000009,-0000084,+0004132,-0000754,+0000476,-0002353,15:00:43.170012
0.152731,+0000006,-0000027,-0000004,+0000017,-0000097,+0004165,-0000754,+0000476,-0002353,15:00:43.170012
0.153064,+0000016,-0000032,-0000013,+0000021,-0000082,+0004150,-0000752,+0000474,-0002328,15:00:43.170012
0.153397,+0000005,-0000016,-0000013,+0000035,-0000073,+0004166,-0000752,+0000474,-0002328,15:00:43.170012
0.153730,+0000018,-0000008,+0000001,+0000040,-0000082,+0004159,-0000752,+0000474,-0002328,15:00:43.170012
0.154063,+0000014,-0000025,-0000016,+0000024,-0000078,+0004140,-0000764,+0000462,-0002333,15:00:43.170012
0.154396,+0000005,-0000010,+0000005,+0000011,-0000076,+0004158,-0000764,+0000462,-0002333,15:00:43.170012
0.154729,+0000022,-0000032,-0000010,+0000032,-0000086,+0004160,-0000764,+0000462,-0002333,15:00:43.170012
0.155062,+0000023,-0000016,-0000011,+0000024,-0000087,+0004158,-0000760,+0000460,-0002353,15:00:43.170012
0.155395,+0000011,-0000019,-0000003,+0000022,-0000105,+0004160,-0000760,+0000460,-0002353,15:00:43.170012
0.155728,+0000008,-0000015,-0000003,+0000008,-0000107,+0004143,-0000760,+0000460,-0002353,15:00:43.170012
0.156061,-0000006,-0000015,-0000010,+0000009,-0000074,+0004170,-0000756,+0000466,-0002349,15:00:43.170012
0.156394,+0000021,-0000029,-0000002,+0000027,-0000095,+0004153,-0000756,+0000466,-0002349,15:00:43.170012
0.156727,+0000017,-0000024,-0000002,+0000031,-0000092,+0004160,-0000756,+0000466,-0002349,15:00:43.170012
0.157060,+0000010,-0000042,-0000011,+0000024,-0000089,+0004133,-0000750,+0000464,-0002321,15:00:43.170012
0.157393,+0000016,-0000011,-0000007,+0000034,-0000093,+0004156,-0000750,+0000464,-0002321,15:00:43.170012
0.157726,+0000006,-0000021,-0000007,+0000016,-0000107,+0004160,-0000750,+0000464,-0002321,15:00:43.170012
0.158059,+0000007,-0000007,-0000002,+0000012,-0000076,+0004121,-0000768,+0000468,-0002344,15:00:43.170012
0.158392,+0000007,-0000019,-0000007,+0000035,-0000090,+0004152,-0000768,+0000468,-0002344,15:00:43.170012
0.158725,+0000014,-0000021,-0000007,+0000021,-0000078,+0004146,-0000768,+0000468,-0002344,15:00:43.170012
0.159058,+0000024,-0000044,-0000022,+0000033,-0000092,+0004148,-0000752,+0000474,-0002314,15:00:43.170012
0.159391,+0000011,-0000009,+0000000,+0000024,-0000098,+0004144,-0000752,+0000474,-0002314,15:00:43.170012
0.159724,+0000002,-0000008,-0000002,+0000016,-0000089,+0004154,-0000752,+0000474,-0002314,15:00:43.170012
0.160057,+0000014,-0000019,-0000016,+0000041,-0000081,+0004151,-0000762,+0000470,-0002308,15:00:43.170012
0.160390,+0000025,-0000032,-0000013,+0000009,-0000084,+0004153,-0000762,+0000470,-0002308,15:00:43.170012
0.160723,+0000017,-0000034,-0000013,+0000010,-0000098,+0004134,-0000762,+0000470,-0002308,15:00:43.170012
0.161056,+0000007,-0000029,-0000008,+0000016,-0000075,+0004146,-0000760,+0000462,-0002318,15:00:43.170012
0.161389,+0000016,-0000015,-0000011,+0000024,-0000084,+0004134,-0000760,+0000462,-0002318,15:00:43.170012
0.161722,-0000002,-0000005,+0000000,+0000010,-0000070,+0004136,-0000760,+0000462,-0002318,15:00:43.170785
0.162055,+0000010,-0000009,-0000006,+0000024,-0000069,+0004133,-0000762,+0000462,-0002340,15:00:43.170785
0.162388,+0000016,-0000032,+0000000,-0000005,-0000063,+0004155,-0000762,+0000462,-0002340,15:00:43.170785
0.162721,+0000019,-0000039,-0000005,+0000006,-0000093,+0004158,-0000762,+0000462,-0002340,15:00:43.170785
0.163054,+0000027,-0000035,-0000005,+0000018,-0000079,+0004151,-0000754,+0000470,-0002318,15:00:43.170785
0.163387,+0000005,-0000012,-0000020,+0000012,-0000075,+0004148,-0000754,+0000470,-0002318,15:00:43.171779
0.163720,+0000002,-0000010,-0000004,+0000018,-0000107,+0004176,-0000754,+0000470,-0002318,15:00:43.171779
0.164053,+0000005,-0000027,-0000021,+0000026,-0000067,+0004156,-0000768,+0000466,-0002342,15:00:43.171779
0.164386,+0000024,-0000039,+0000008,+0000034,-0000073,+0004157,-0000768,+0000466,-0002342,15:00:43.171779
0.164719,+0000021,-0000032,-0000021,+0000007,-0000067,+0004152,-0000768,+0000466,-0002342,15:00:43.171779
0.165052,+0000013,-0000030,-0000021,+0000021,-0000091,+0004137,-0000760,+0000460,-0002313,15:00:43.171779
0.165385,+0000002,+0000004,-0000010,+0000016,-0000072,+0004140,-0000760,+0000460,-0002313,15:00:43.171779
0.165718,-0000004,+0000004,-0000007,+0000006,-0000090,+0004149,-0000760,+0000460,-0002313,15:00:43.171779
0.166051,+0000022,-0000042,-0000002,+0000020,-0000076,+0004138,-0000774,+0000478,-0002326,15:00:43.171779
0.166384,+0000008,-0000022,-0000010,+0000013,-0000078,+0004148,-0000774,+0000478,-0002326,15:00:43.171779
0.166718,+0000020,-0000040,-0000019,+0000021,-0000082,+0004142,-0000774,+0000478,-0002326,15:00:43.171779
0.167050,+0000011,-0000013,-0000010,+0000029,-0000061,+0004151,-0000766,+0000460,-0002339,15:00:43.171779
0.167383,+0000011,-0000011,+0000000,-0000006,-0000106,+0004150,-0000766,+0000460,-0002339,15:00:43.171779
0.167718,+0000010,-0000015,-0000007,+0000008,-0000091,+0004145,-0000766,+0000460,-0002339,15:00:43.171779
0.168049,+0000017,-0000029,+0000000,+0000012,-0000075,+0004165,-0000746,+0000460,-0002342,15:00:43.171779
0.168382,+0000023,-0000036,-0000018,+0000022,-0000100,+0004154,-0000746,+0000460,-0002342,15:00:43.171779
0.168718,+0000024,-0000018,-0000013,+0000012,-0000075,+0004157,-0000746,+0000460,-0002342,15:00:43.171779
0.169048,-0000003,-0000016,-0000011,+0000025,-0000096,+0004147,-0000772,+0000456,-0002340,15:00:43.171779
0.169381,+0000006,-0000018,+0000000,+0000030,-0000077,+0004144,-0000772,+0000456,-0002340,15:00:43.171779
0.169719,+0000000,-0000008,-0000008,+0000020,-0000084,+0004139,-0000772,+0000456,-0002340,15:00:43.171779
0.170047,+0000019,-0000031,-0000010,+0000032,-0000083,+0004155,-0000764,+0000458,-0002336,15:00:43.171779
0.170380,+0000022,-0000047,-0000011,+0000032,-0000071,+0004158,-0000764,+0000458,-0002336,15:00:43.171779
0.170718,+0000014,-0000018,-0000002,+0000023,-0000086,+0004170,-0000764,+0000458,-0002336,15:00:43.171779
0.171046,+0000008,-0000023,-0000013,+0000037,-0000082,+0004170,-0000760,+0000474,-0002326,15:00:43.171779
0.171379,+0000003,-0000010,-0000007,+0000023,-0000074,+0004148,-0000760,+0000474,-0002326,15:00:43.171779
0.171717,+0000013,-0000013,-0000007,+0000020,-0000082,+0004175,-0000760,+0000474,-0002326,15:00:43.171779
0.172045,+0000005,-0000029,-0000008,+0000040,-0000095,+0004153,-0000748,+0000470,-0002318,15:00:43.171779
0.172378,+0000027,-0000037,-0000010,+0000024,-0000088,+0004159,-0000748,+0000470,-0002318,15:00:43.171779
0.172716,+0000016,-0000036,-0000015,+0000033,-0000082,+0004152,-0000748,+0000470,-0002318,15:00:43.171779
0.173044,+0000008,-0000024,-0000005,+0000028,-0000071,+0004142,-0000770,+0000470,-0002319,15:00:43.171779
0.173377,+0000006,-0000005,-0000015,+0000029,-0000072,+0004158,-0000770,+0000470,-0002319,15:00:43.171779
0.173715,+0000011,-0000024,-0000010,+0000004,-0000083,+0004158,-0000770,+0000470,-0002319,15:00:43.171779
0.174043,+0000035,-0000023,-0000010,+0000044,-0000088,+0004144,-0000756,+0000472,-0002326,15:00:43.171779
0.174376,+0000011,-0000037,-0000005,+0000033,-0000080,+0004145,-0000756,+0000472,-0002326,15:00:43.171779
0.174714,+0000016,-0000024,-0000013,+0000019,-0000086,+0004154,-0000756,+0000472,-0002326,15:00:43.171779
0.175042,+0000008,-0000021,-0000013,+0000028,-0000077,+0004132,-0000762,+0000482,-0002316,15:00:43.171779
0.175375,+0000005,-0000035,-0000010,+0000024,-0000091,+0004135,-0000762,+0000482,-0002316,15:00:43.171779
0.175711,+0000013,-0000019,-0000005,+0000033,-0000091,+0004157,-0000762,+0000482,-0002316,15:00:43.171779
0.176041,+0000019,-0000029,+0000000,+0000026,-0000099,+0004147,-0000758,+0000458,-0002338,15:00:43.171779
0.176374,+0000022,-0000051,-0000018,+0000031,-0000080,+0004146,-0000758,+0000458,-0002338,15:00:43.171779
0.176711,+0000018,-0000024,-0000011,+0000013,-0000090,+0004173,-0000758,+0000458,-0002338,15:00:43.171779
0.177040,+0000013,-0000018,+0000001,+0000027,-0000086,+0004131,-0000762,+0000470,-0002320,15:00:43.171779
0.177373,+0000003,-0000015,-0000018,+0000025,-0000078,+0004129,-0000762,+0000470,-0002320,15:00:43.171779
0.177710,-0000001,-0000020,+0000007,+0000030,-0000077,+0004137,-0000762,+0000470,-0002320,15:00:43.171779
0.178039,+0000025,-0000028,-0000015,+0000029,-0000097,+0004131,-0000764,+0000482,-0002326,15:00:43.171779
0.178372,+0000016,-0000039,-0000019,+0000009,-0000086,+0004153,-0000764,+0000482,-0002326,15:00:43.171779
0.178710,+0000011,-0000018,-0000005,+0000002,-0000107,+0004115,-0000764,+0000482,-0002326,15:00:43.171779
0.179038,-0000004,-0000008,-0000015,+0000003,-0000077,+0004132,-0000754,+0000468,-0002312,15:00:43.171779
0.179371,+0000002,+0000000,-0000001,+0000025,-0000094,+0004155,-0000754,+0000468,-0002312,15:00:43.171779
0.179708,+0000016,-0000024,-0000003,+0000024,-0000089,+0004127,-0000754,+0000468,-0002312,15:00:43.171779
0.180037,+0000033,-0000050,-0000022,+0000024,-0000072,+0004137,-0000760,+0000488,-0002329,15:00:43.171779
0.180370,+0000010,-0000034,-0000015,+0000018,-0000077,+0004158,-0000760,+0000488,-0002329,15:00:43.171779
0.180707,+0000010,-0000028,-0000019,+0000009,-0000087,+0004143,-0000760,+0000488,-0002329,15:00:43.171779
0.181036,+0000010,-0000008,-0000002,+0000034,-0000078,+0004138,-0000750,+0000454,-0002318,15:00:43.171779
0.181369,+0000008,-0000015,-0000011,+0000023,-0000094,+0004153,-0000750,+0000454,-0002318,15:00:43.171779
0.181702,+0000005,-0000018,+0000001,+0000020,-0000085,+0004126,-0000750,+0000454,-0002318,15:00:43.171779
0.182035,+0000022,-0000040,-0000005,+0000010,-0000109,+0004159,-0000762,+0000458,-0002332,15:00:43.171779
0.182368,+0000035,-0000017,-0000010,+0000017,-0000093,+0004152,-0000762,+0000458,-0002332,15:00:43.171779
0.182702,+0000005,-0000021,-0000007,+0000003,-0000104,+0004135,-0000762,+0000458,-0002332,15:00:43.171779
0.183034,+0000019,-0000016,-0000013,+0000017,-0000074,+0004143,-0000770,+0000482,-0002327,15:00:43.171779
0.183367,+0000011,-0000008,-0000003,+0000020,-0000076,+0004153,-0000770,+0000482,-0002327,15:00:43.171779
0.183702,+0000017,-0000026,-0000002,+0000038,-0000092,+0004142,-0000770,+0000482,-0002327,15:00:43.171779
0.184033,+0000029,-0000040,-0000013,+0000030,-0000084,+0004158,-0000768,+0000476,-0002337,15:00:43.171779
0.184366,+0000013,-0000026,-0000005,+0000028,-0000076,+0004157,-0000768,+0000476,-0002337,15:00:43.171779
0.184703,+0000016,-0000023,-0000005,+0000022,-0000104,+0004150,-0000768,+0000476,-0002337,15:00:43.171779
0.185032,+0000013,-0000008,-0000019,+0000015,-0000089,+0004176,-0000762,+0000470,-0002314,15:00:43.171779
0.185365,+0000000,-0000029,+0000006,+0000014,-0000081,+0004161,-0000762,+0000470,-0002314,15:00:43.171779
0.185702,+0000013,-0000031,-0000008,+0000018,-0000100,+0004175,-0000762,+0000470,-0002314,15:00:43.171779
0.186031,+0000016,-0000024,-0000004,+0000009,-0000084,+0004163,-0000782,+0000476,-0002318,15:00:43.171779
0.186364,+0000019,-0000031,-0000016,+0000006,-0000081,+0004159,-0000782,+0000476,-0002318,15:00:43.171779
0.186701,+0000017,-0000013,-0000005,+0000006,-0000063,+0004169,-0000782,+0000476,-0002318,15:00:43.171779
0.187030,+0000002,-0000026,-0000011,+0000032,-0000088,+0004160,-0000768,+0000456,-0002330,15:00:43.171779
0.187363,+0000008,-0000008,+0000005,+0000022,-0000071,+0004164,-0000768,+0000456,-0002330,15:00:43.171779
0.187709,+0000016,-0000034,-0000005,+0000017,-0000104,+0004161,-0000768,+0000456,-0002330,15:00:43.171779
0.188029,+0000027,-0000024,-0000013,+0000028,-0000087,+0004166,-0000772,+0000472,-0002335,15:00:43.171779
0.188362,+0000000,-0000030,-0000002,+0000055,-0000092,+0004153,-0000772,+0000472,-0002335,15:00:43.171779
0.188708,+0000013,-0000018,-0000008,+0000035,-0000076,+0004147,-0000772,+0000472,-0002335,15:00:43.171779
0.189028,-0000001,+0000000,-0000005,+0000028,-0000107,+0004151,-0000760,+0000476,-0002330,15:00:43.171779
0.189361,+0000010,-0000013,+0000000,+0000036,-0000083,+0004175,-0000760,+0000476,-0002330,15:00:43.171779
0.189707,+0000027,-0000045,-0000015,+0000030,-0000069,+0004162,-0000760,+0000476,-0002330,15:00:43.171779
0.190027,+0000013,-0000029,-0000008,+0000019,-0000083,+0004147,-0000772,+0000472,-0002328,15:00:43.171779
0.190360,+0000018,-0000026,-0000015,+0000029,-0000081,+0004148,-0000772,+0000472,-0002328,15:00:43.171779
0.190706,+0000008,-0000018,-0000010,+0000048,-0000074,+0004165,-0000772,+0000472,-0002328,15:00:43.171779
0.191026,+0000016,-0000015,-0000005,+0000024,-0000080,+0004166,-0001018,+0000464,-0002345,15:00:43.171779
0.191359,+0000005,-0000029,-0000007,+0000008,-0000102,+0004153,-0001018,+0000464,-0002345,15:00:43.171779
0.191704,+0000024,-0000044,-0000015,+0000020,-0000074,+0004149,-0001018,+0000464,-0002345,15:00:43.171779
0.192025,+0000011,-0000023,+0000008,+0000021,-0000079,+0004162,-0000768,+0000468,-0002327,15:00:43.171779
0.192358,+0000019,-0000015,-0000027,+0000034,-0000084,+0004159,-0000768,+0000468,-0002327,15:00:43.171779
0.192691,-0000007,-0000008,-0000007,+0000031,-0000098,+0004143,-0000768,+0000468,-0002327,15:00:43.171779
0.193016,+0000014,-0000004,-0000007,+0000025,-0000068,+0004154,-0000774,+0000466,-0002359,15:00:43.222020
0.193357,+0000005,-0000016,+0000000,+0000037,-0000104,+0004164,-0000774,+0000466,-0002359,15:00:43.222020
0.193705,+0000021,-0000032,-0000013,+0000016,-0000100,+0004148,-0000774,+0000466,-0002359,15:00:43.222020
0.194404,-0000014,-0000008,+0000006,+0000013,-0000096,+0004143,-0000756,+0000456,-0002342,15:00:43.222020
0.194787,+0000011,+0000000,-0000010,+0000025,-0000089,+0004142,-0000756,+0000456,-0002342,15:00:43.222020
0.195027,-0000003,-0000016,-0000005,+0000015,-0000101,+0004141,-0000756,+0000456,-0002342,15:00:43.222020
0.195366,+0000032,-0000029,-0000015,+0000034,-0000087,+0004138,-0000762,+0000458,-0002334,15:00:43.222020
0.195689,+0000008,-0000035,-0000005,+0000031,-0000082,+0004151,-0000762,+0000458,-0002334,15:00:43.222020
0.196162,-0000001,-0000021,+0000001,+0000012,-0000066,+0004156,-0000762,+0000458,-0002334,15:00:43.222020
0.196354,+0000010,-0000019,-0000017,+0000026,-0000078,+0004158,-0000778,+0000454,-0002324,15:00:43.222020
0.196687,+0000013,-0000010,-0000006,+0000010,-0000102,+0004135,-0000778,+0000454,-0002324,15:00:43.222020
0.197020,+0000010,+0000000,+0000000,+0000015,-0000090,+0004138,-0000778,+0000454,-0002324,15:00:43.222020
0.197353,+0000028,-0000051,-0000022,+0000009,-0000072,+0004157,-0000774,+0000456,-0002337,15:00:43.222020
0.197686,+0000011,-0000037,-0000018,+0000010,-0000083,+0004138,-0000774,+0000456,-0002337,15:00:43.222020
0.198083,+0000013,-0000034,-0000013,+0000025,-0000086,+0004163,-0000774,+0000456,-0002337,15:00:43.222020
0.198352,+0000017,-0000026,-0000010,+0000023,-0000089,+0004143,-0000756,+0000448,-0002322,15:00:43.222020
0.198866,+0000016,-0000021,-0000016,+0000020,-0000089,+0004151,-0000756,+0000448,-0002322,15:00:43.222020
0.199049,+0000016,-0000021,-0000008,+0000004,-0000096,+0004165,-0000756,+0000448,-0002322,15:00:43.222020
0.199355,+0000013,-0000042,-0000010,+0000026,-0000093,+0004154,-0000766,+0000482,-0002351,15:00:43.222020
0.199687,+0000010,-0000037,-0000016,+0000011,-0000099,+0004159,-0000766,+0000482,-0002351,15:00:43.222020
0.200019,+0000015,-0000022,-0000017,-0000011,-0000104,+0004164,-0000766,+0000482,-0002351,15:00:43.222020
0.200352,+0000011,-0000010,+0000001,+0000024,-0000068,+0004146,-0000754,+0000472,-0002347,15:00:43.222020
0.200684,+0000012,-0000022,-0000019,+0000027,-0000101,+0004155,-0000754,+0000472,-0002347,15:00:43.222020
0.201017,+0000014,+0000003,+0000002,+0000015,-0000104,+0004146,-0000754,+0000472,-0002347,15:00:43.222020
0.201351,+0000024,-0000030,-0000016,+0000025,-0000093,+0004140,-0000774,+0000474,-0002317,15:00:43.222020
0.201683,+0000011,-0000021,-0000010,+0000019,-0000073,+0004130,-0000774,+0000474,-0002317,15:00:43.222020
0.202015,+0000024,-0000031,-0000001,+0000012,-0000085,+0004151,-0000774,+0000474,-0002317,15:00:43.222020
0.202350,+0000011,-0000026,-0000010,+0000021,-0000078,+0004170,-0000740,+0000466,-0002314,15:00:43.222020
0.202682,-0000004,-0000011,-0000008,+0000017,-0000065,+0004141,-0000740,+0000466,-0002314,15:00:43.222020
0.203014,+0000005,-0000019,+0000000,+0000008,-0000076,+0004156,-0000740,+0000466,-0002314,15:00:43.222020
0.203347,+0000025,-0000031,-0000011,+0000007,-0000077,+0004145,-0000766,+0000476,-0002345,15:00:43.222020
0.203680,+0000014,-0000032,-0000008,+0000006,-0000101,+0004164,-0000766,+0000476,-0002345,15:00:43.222020
0.204013,+0000005,-0000027,-0000015,+0000032,-0000071,+0004169,-0000766,+0000476,-0002345,15:00:43.222020
0.204346,+0000014,-0000012,-0000015,+0000011,-0000080,+0004162,-0000758,+0000478,-0002330,15:00:43.222020
0.204679,-0000002,+0000000,-0000003,+0000033,-0000090,+0004146,-0000758,+0000478,-0002330,15:00:43.222020
0.205012,+0000016,-0000026,-0000011,+0000031,-0000082,+0004163,-0000758,+0000478,-0002330,15:00:43.222020
0.205345,+0000021,-0000040,+0000000,+0000027,-0000076,+0004158,-0000754,+0000458,-0002340,15:00:43.222020
0.205678,+0000006,-0000035,-0000008,+0000024,-0000058,+0004154,-0000754,+0000458,-0002340,15:00:43.222020
0.206011,+0000024,-0000034,-0000016,+0000015,-0000058,+0004160,-0000754,+0000458,-0002340,15:00:43.222020
0.206344,-0000003,-0000008,-0000007,+0000016,-0000070,+0004149,-0000760,+0000454,-0002331,15:00:43.222020
0.206677,+0000008,-0000015,-0000010,+0000047,-0000069,+0004150,-0000760,+0000454,-0002331,15:00:43.222020
0.207010,+0000011,-0000031,+0000008,+0000042,-0000071,+0004152,-0000760,+0000454,-0002331,15:00:43.222020
0.207343,+0000027,-0000042,-0000015,+0000031,-0000075,+0004161,-0000754,+0000460,-0002337,15:00:43.222020
0.207676,+0000008,-0000037,-0000005,+0000009,-0000070,+0004150,-0000754,+0000460,-0002337,15:00:43.222020
0.208009,+0000006,-0000016,-0000007,+0000015,-0000078,+0004156,-0000754,+0000460,-0002337,15:00:43.222020
0.208342,+0000007,-0000011,-0000019,+0000018,-0000068,+0004154,-0000766,+0000466,-0002334,15:00:43.222020
0.208675,+0000014,-0000024,-0000002,+0000026,-0000076,+0004161,-0000766,+0000466,-0002334,15:00:43.222020
0.209008,+0000007,-0000016,+0000008,+0000016,-0000098,+0004138,-0000766,+0000466,-0002334,15:00:43.222020
0.209341,+0000019,-0000034,-0000021,+0000018,-0000092,+0004161,-0000740,+0000466,-0002321,15:00:43.223024
0.209674,+0000017,-0000021,-0000008,+0000022,-0000064,+0004132,-0000740,+0000466,-0002321,15:00:43.223024
0.210007,-0000001,-0000021,-0000003,+0000013,-0000063,+0004161,-0000740,+0000466,-0002321,15:00:43.223024
0.210340,+0000006,-0000008,+0000001,+0000028,-0000089,+0004132,-0000768,+0000458,-0002325,15:00:43.223024
0.210673,+0000011,-0000016,-0000004,+0000038,-0000079,+0004157,-0000768,+0000458,-0002325,15:00:43.223024
0.211006,+0000011,-0000028,-0000018,+0000010,-0000079,+0004150,-0000768,+0000458,-0002325,15:00:43.223024
0.211339,+0000011,-0000045,-0000010,+0000030,-0000071,+0004160,-0000756,+0000460,-0002341,15:00:43.223024
0.211672,+0000003,-0000018,-0000005,+0000020,-0000083,+0004163,-0000756,+0000460,-0002341,15:00:43.223024
0.212005,+0000011,-0000015,-0000011,+0000013,-0000099,+0004146,-0000756,+0000460,-0002341,15:00:43.223024
0.212338,+0000022,-0000029,-0000014,+0000030,-0000077,+0004148,-0000766,+0000456,-0002326,15:00:43.223024
0.212671,+0000005,-0000007,-0000004,+0000018,-0000078,+0004144,-0000766,+0000456,-0002326,15:00:43.223024
0.213004,+0000014,-0000032,-0000004,+0000026,-0000095,+0004169,-0000766,+0000456,-0002326,15:00:43.223024
0.213337,+0000010,-0000018,-0000014,+0000022,-0000086,+0004135,-0000756,+0000438,-0002331,15:00:43.223024
0.213670,+0000027,-0000022,-0000016,+0000032,-0000075,+0004133,-0000756,+0000438,-0002331,15:00:43.223024
0.214003,+0000002,-0000016,-0000008,+0000026,-0000078,+0004157,-0000756,+0000438,-0002331,15:00:43.223024
0.214336,+0000014,-0000010,-0000005,+0000013,-0000078,+0004156,-0000754,+0000448,-0002330,15:00:43.223024
0.214669,-0000004,-0000010,-0000007,+0000007,-0000087,+0004141,-0000754,+0000448,-0002330,15:00:43.223024
0.215002,+0000002,-0000026,+0000003,+0000023,-0000074,+0004149,-0000754,+0000448,-0002330,15:00:43.223024
0.215335,+0000035,-0000039,-0000016,+0000004,-0000094,+0004130,-0000738,+0000454,-0002334,15:00:43.223024
0.215668,+0000007,-0000035,-0000008,+0000017,-0000099,+0004147,-0000738,+0000454,-0002334,15:00:43.224031
0.216001,+0000017,-0000023,-0000023,+0000011,-0000086,+0004119,-0000738,+0000454,-0002334,15:00:43.224031
0.216334,+0000014,-0000007,-0000009,+0000014,-0000090,+0004160,-0000770,+0000460,-0002338,15:00:43.224031
0.216667,+0000014,-0000017,-0000005,+0000008,-0000091,+0004158,-0000770,+0000460,-0002338,15:00:43.224031
0.217000,+0000008,-0000027,-0000005,+0000004,-0000082,+0004161,-0000770,+0000460,-0002338,15:00:43.224031
0.217333,+0000033,-0000035,-0000016,+0000016,-0000078,+0004139,-0000772,+0000460,-0002340,15:00:43.224031
0.217666,+0000013,-0000031,-0000024,+0000017,-0000106,+0004128,-0000772,+0000460,-0002340,15:00:43.224031
0.217999,+0000004,-0000016,+0000005,+0000002,-0000080,+0004159,-0000772,+0000460,-0002340,15:00:43.224031
0.218332,-0000006,+0000003,+0000007,+0000025,-0000078,+0004149,-0000766,+0000464,-0002334,15:00:43.224031
0.218665,+0000024,-0000026,-0000022,+0000031,-0000109,+0004145,-0000766,+0000464,-0002334,15:00:43.224031
0.218998,+0000013,-0000035,+0000000,+0000011,-0000098,+0004138,-0000766,+0000464,-0002334,15:00:43.224031
0.219331,+0000024,-0000032,-0000024,+0000034,-0000092,+0004170,-0000754,+0000470,-0002321,15:00:43.224031
0.219664,+0000013,-0000031,-0000002,+0000024,-0000091,+0004170,-0000754,+0000470,-0002321,15:00:43.224031
0.219997,+0000002,-0000012,+0000009,-0000003,-0000101,+0004173,-0000754,+0000470,-0002321,15:00:43.224031
0.220330,+0000002,-0000007,-0000016,+0000025,-0000078,+0004160,-0000772,+0000432,-0002331,15:00:43.224031
0.220688,+0000008,-0000034,-0000005,+0000016,-0000056,+0004162,-0000772,+0000432,-0002331,15:00:43.224031
0.220996,+0000024,-0000034,-0000005,+0000016,-0000078,+0004169,-0000772,+0000432,-0002331,15:00:43.224031
0.221329,+0000032,-0000024,-0000013,+0000020,-0000098,+0004144,-0000754,+0000458,-0002353,15:00:43.224031
0.221662,+0000016,-0000018,-0000024,+0000022,-0000079,+0004153,-0000754,+0000458,-0002353,15:00:43.224031
0.221995,+0000006,-0000013,+0000001,+0000024,-0000095,+0004156,-0000754,+0000458,-0002353,15:00:43.224031
0.222328,+0000013,-0000016,-0000003,+0000035,-0000087,+0004154,-0000768,+0000462,-0002366,15:00:43.224031
0.222661,+0000009,-0000021,-0000008,-0000001,-0000099,+0004162,-0000768,+0000462,-0002366,15:00:43.224031
0.222994,+0000027,-0000034,+0000000,+0000019,-0000067,+0004168,-0000768,+0000462,-0002366,15:00:43.224031
0.223327,+0000026,-0000022,-0000003,+0000025,-0000069,+0004152,-0000762,+0000458,-0002350,15:00:43.224031
0.223660,+0000017,-0000018,-0000007,+0000029,-0000068,+0004170,-0000762,+0000458,-0002350,15:00:43.224031
0.223993,+0000003,-0000011,-0000013,+0000013,-0000091,+0004148,-0000762,+0000458,-0002350,15:00:43.224031
0.224326,+0000008,-0000015,-0000007,+0000003,-0000070,+0004165,-0000766,+0000464,-0002322,15:00:43.224031
0.224659,+0000011,-0000011,+0000000,+0000025,-0000078,+0004157,-0000766,+0000464,-0002322,15:00:43.224031
0.224992,+0000016,-0000050,-0000010,+0000024,-0000073,+0004156,-0000766,+0000464,-0002322,15:00:43.224031
0.225325,+0000011,-0000015,-0000003,+0000025,-0000067,+0004157,-0000750,+0000456,-0002365,15:00:43.224031
0.225658,+0000017,-0000014,-0000019,+0000015,-0000076,+0004152,-0000750,+0000456,-0002365,15:00:43.224031
0.225991,+0000000,-0000017,-0000013,+0000023,-0000072,+0004132,-0000750,+0000456,-0002365,15:00:43.224031
0.226324,+0000011,-0000016,-0000008,+0000007,-0000070,+0004130,-0000760,+0000470,-0002354,15:00:43.224031
0.226657,+0000017,-0000027,-0000011,+0000018,-0000102,+0004141,-0000760,+0000470,-0002354,15:00:43.224031
0.226990,+0000014,-0000029,-0000016,+0000023,-0000083,+0004157,-0000760,+0000470,-0002354,15:00:43.224031
0.227323,+0000010,-0000028,-0000010,+0000035,-0000076,+0004140,-0000752,+0000468,-0002352,15:00:43.224031
0.227656,+0000005,-0000012,-0000007,+0000023,-0000097,+0004140,-0000752,+0000468,-0002352,15:00:43.224031
0.227989,+0000013,-0000018,-0000004,+0000029,-0000087,+0004146,-0000752,+0000468,-0002352,15:00:43.224031
0.228322,+0000006,-0000024,-0000016,+0000028,-0000086,+0004135,-0000738,+0000454,-0002343,15:00:43.224031
0.228655,+0000025,-0000029,-0000013,+0000022,-0000090,+0004140,-0000738,+0000454,-0002343,15:00:43.224031
0.228988,+0000030,-0000032,-0000008,+0000038,-0000097,+0004142,-0000738,+0000454,-0002343,15:00:43.224031
0.229321,+0000019,-0000027,-0000005,+0000025,-0000097,+0004152,-0000752,+0000442,-0002311,15:00:43.224031
0.229654,+0000027,-0000029,-0000014,+0000044,-0000083,+0004146,-0000752,+0000442,-0002311,15:00:43.224031
0.229987,+0000000,+0000005,+0000003,+0000015,-0000078,+0004153,-0000752,+0000442,-0002311,15:00:43.224031
0.230320,+0000016,-0000023,-0000002,+0000018,-0000079,+0004138,-0000756,+0000458,-0002335,15:00:43.224031
0.230653,+0000028,-0000029,-0000021,+0000009,-0000073,+0004151,-0000756,+0000458,-0002335,15:00:43.224031
0.230986,+0000018,-0000031,-0000008,+0000027,-0000071,+0004135,-0000756,+0000458,-0002335,15:00:43.224031
0.231319,+0000022,-0000028,-0000005,+0000009,-0000098,+0004133,-0000766,+0000448,-0002331,15:00:43.224031
0.231652,+0000011,-0000021,-0000008,+0000036,-0000075,+0004136,-0000766,+0000448,-0002331,15:00:43.224031
0.231985,+0000003,-0000014,-0000005,+0000027,-0000098,+0004140,-0000766,+0000448,-0002331,15:00:43.224031
0.232318,+0000022,-0000016,+0000000,+0000024,-0000085,+0004148,-0000762,+0000470,-0002331,15:00:43.224031
0.232651,+0000014,-0000026,-0000008,+0000013,-0000105,+0004138,-0000762,+0000470,-0002331,15:00:43.224031
0.232984,+0000019,-0000034,-0000008,+0000030,-0000089,+0004139,-0000762,+0000470,-0002331,15:00:43.224031
0.233317,+0000020,-0000032,-0000006,+0000019,-0000095,+0004176,-0000764,+0000454,-0002310,15:00:43.224031
0.233650,-0000003,-0000008,-0000013,+0000015,-0000085,+0004168,-0000764,+0000454,-0002310,15:00:43.224031
0.233983,+0000011,-0000021,-0000013,+0000009,-0000075,+0004159,-0000764,+0000454,-0002310,15:00:43.224031
0.234316,+0000006,-0000016,-0000002,+0000006,-0000101,+0004156,-0000748,+0000462,-0002319,15:00:43.224031
0.234649,+0000025,-0000034,-0000004,+0000007,-0000084,+0004145,-0000748,+0000462,-0002319,15:00:43.224031
0.234982,+0000008,-0000046,-0000016,+0000031,-0000080,+0004154,-0000748,+0000462,-0002319,15:00:43.224031
0.235315,+0000011,-0000011,-0000021,+0000042,-0000090,+0004127,-0000764,+0000472,-0002300,15:00:43.224031
0.235648,+0000000,-0000007,+0000009,+0000026,-0000075,+0004153,-0000764,+0000472,-0002300,15:00:43.224031
0.235981,+0000019,-0000024,-0000018,+0000026,-0000089,+0004156,-0000764,+0000472,-0002300,15:00:43.224031
0.236314,+0000013,-0000020,+0000004,+0000035,-0000092,+0004162,-0000776,+0000470,-0002321,15:00:43.224031
0.236647,+0000027,-0000032,-0000018,+0000034,-0000070,+0004158,-0000776,+0000470,-0002321,15:00:43.224031
0.236980,+0000019,-0000026,-0000010,+0000010,-0000102,+0004162,-0000776,+0000470,-0002321,15:00:43.224031
0.237313,+0000013,-0000010,-0000005,+0000007,-0000087,+0004164,-0000766,+0000460,-0002333,15:00:43.224031
0.237646,+0000008,-0000018,-0000013,-0000001,-0000095,+0004140,-0000766,+0000460,-0002333,15:00:43.224031
0.237979,+0000000,-0000020,+0000006,+0000005,-0000094,+0004121,-0000766,+0000460,-0002333,15:00:43.224031
0.238312,+0000019,-0000018,-0000021,+0000027,-0000085,+0004160,-0000756,+0000446,-0002316,15:00:43.224031
0.238645,+0000016,-0000032,-0000007,+0000035,-0000085,+0004163,-0000756,+0000446,-0002316,15:00:43.224031
0.238978,+0000018,-0000040,-0000010,+0000027,-0000079,+0004164,-0000756,+0000446,-0002316,15:00:43.224031
0.239311,+0000006,-0000015,-0000007,+0000016,-0000096,+0004170,-0000764,+0000458,-0002316,15:00:43.224031
0.239644,+0000011,-0000018,-0000007,+0000044,-0000077,+0004182,-0000764,+0000458,-0002316,15:00:43.224031
0.239977,+0000009,-0000021,-0000010,+0000002,-0000062,+0004155,-0000764,+0000458,-0002316,15:00:43.224031
0.240310,+0000019,-0000029,-0000005,+0000015,-0000077,+0004149,-0000752,+0000454,-0002324,15:00:43.224031
0.240643,+0000044,-0000039,-0000012,+0000022,-0000076,+0004145,-0000752,+0000454,-0002324,15:00:43.224031
0.240976,+0000013,-0000020,-0000008,+0000008,-0000072,+0004159,-0000752,+0000454,-0002324,15:00:43.224031
0.241309,+0000007,-0000026,-0000002,+0000028,-0000071,+0004173,-0000762,+0000460,-0002311,15:00:43.224031
0.241642,+0000016,-0000002,-0000013,+0000027,-0000078,+0004159,-0000762,+0000460,-0002311,15:00:43.224031
0.241975,-0000001,-0000021,-0000005,+0000004,-0000078,+0004152,-0000762,+0000460,-0002311,15:00:43.224031
0.242308,+0000019,-0000019,-0000010,+0000019,-0000078,+0004138,-0000784,+0000450,-0002299,15:00:43.224031
0.242641,+0000014,-0000039,-0000012,+0000022,-0000080,+0004124,-0000784,+0000450,-0002299,15:00:43.224031
0.242974,+0000014,-0000027,-0000015,+0000032,-0000099,+0004144,-0000784,+0000450,-0002299,15:00:43.270105
0.243308,+0000003,-0000021,-0000012,+0000016,-0000094,+0004153,-0000760,+0000452,-0002333,15:00:43.270105
0.243646,+0000008,+0000004,-0000012,+0000015,-0000094,+0004146,-0000760,+0000452,-0002333,15:00:43.270105
0.244361,+0000018,-0000027,-0000013,+0000034,-0000081,+0004141,-0000760,+0000452,-0002333,15:00:43.270105
0.244754,+0000003,-0000013,-0000016,+0000020,-0000080,+0004148,-0000750,+0000460,-0002306,15:00:43.270105
0.245056,+0000010,-0000015,+0000000,+0000035,-0000099,+0004120,-0000750,+0000460,-0002306,15:00:43.270105
0.245306,+0000001,-0000015,+0000000,+0000008,-0000082,+0004148,-0000750,+0000460,-0002306,15:00:43.270105
0.245641,+0000004,-0000024,+0000000,+0000005,-0000075,+0004136,-0000784,+0000460,-0002340,15:00:43.270105
0.245971,+0000025,-0000040,-0000007,+0000021,-0000092,+0004137,-0000784,+0000460,-0002340,15:00:43.270105
0.246306,+0000022,-0000048,-0000016,+0000020,-0000088,+0004149,-0000784,+0000460,-0002340,15:00:43.270105
0.246649,+0000025,-0000042,-0000011,+0000009,-0000077,+0004162,-0000752,+0000468,-0002313,15:00:43.270105
0.246970,+0000002,-0000018,-0000013,+0000049,-0000088,+0004158,-0000752,+0000468,-0002313,15:00:43.270105
0.247306,-0000012,+0000007,+0000008,+0000039,-0000062,+0004138,-0000752,+0000468,-0002313,15:00:43.270105
0.247637,+0000014,-0000013,-0000016,+0000019,-0000061,+0004150,-0000764,+0000454,-0002324,15:00:43.270105
0.247969,+0000025,-0000034,+0000001,+0000019,-0000095,+0004146,-0000764,+0000454,-0002324,15:00:43.270927
0.248313,+0000027,-0000042,-0000016,+0000013,-0000078,+0004150,-0000764,+0000454,-0002324,15:00:43.270927
0.248635,+0000024,-0000028,-0000004,+0000018,-0000071,+0004142,-0000786,+0000466,-0002328,15:00:43.270927
0.248968,+0000016,-0000008,-0000015,+0000030,-0000091,+0004156,-0000786,+0000466,-0002328,15:00:43.270927
0.249301,-0000003,-0000003,+0000000,+0000021,-0000071,+0004134,-0000786,+0000466,-0002328,15:00:43.270927
0.249639,+0000016,-0000019,+0000000,+0000020,-0000088,+0004142,-0000760,+0000434,-0002327,15:00:43.270927
0.249971,+0000027,-0000045,-0000010,+0000026,-0000110,+0004142,-0000760,+0000434,-0002327,15:00:43.271936
0.250302,+0000024,-0000021,-0000018,+0000028,-0000100,+0004154,-0000760,+0000434,-0002327,15:00:43.271936
0.250635,+0000014,-0000018,-0000008,-0000006,-0000076,+0004148,-0000768,+0000472,-0002318,15:00:43.271936
0.250967,+0000008,-0000023,+0000000,+0000020,-0000078,+0004145,-0000768,+0000472,-0002318,15:00:43.271936
0.251300,+0000016,-0000018,-0000003,+0000016,-0000084,+0004139,-0000768,+0000472,-0002318,15:00:43.271936
0.251632,+0000011,-0000012,-0000011,+0000017,-0000076,+0004158,-0000754,+0000454,-0002315,15:00:43.271936
0.251965,+0000013,-0000018,-0000011,+0000026,-0000092,+0004134,-0000754,+0000454,-0002315,15:00:43.271936
0.252299,+0000014,-0000042,-0000010,+0000038,-0000089,+0004140,-0000754,+0000454,-0002315,15:00:43.271936
0.252632,+0000017,-0000024,-0000012,+0000031,-0000075,+0004159,-0000776,+0000444,-0002359,15:00:43.271936
0.252964,+0000019,-0000036,-0000005,+0000028,-0000083,+0004157,-0000776,+0000444,-0002359,15:00:43.271936
0.253297,+0000011,-0000021,-0000005,+0000009,-0000101,+0004154,-0000776,+0000444,-0002359,15:00:43.271936
0.253630,-0000001,-0000015,-0000003,+0000016,-0000071,+0004164,-0000782,+0000470,-0002319,15:00:43.271936
0.253965,+0000022,-0000024,+0000000,+0000026,-0000069,+0004170,-0000782,+0000470,-0002319,15:00:43.271936
0.254296,+0000027,-0000031,-0000016,+0000022,-0000083,+0004166,-0000782,+0000470,-0002319,15:00:43.271936
0.254629,+0000010,-0000023,-0000015,+0000041,-0000085,+0004175,-0000770,+0000452,-0002330,15:00:43.271936
0.254962,+0000011,-0000016,-0000005,+0000016,-0000089,+0004164,-0000770,+0000452,-0002330,15:00:43.271936
0.255295,+0000008,-0000002,-0000015,+0000022,-0000079,+0004153,-0000770,+0000452,-0002330,15:00:43.271936
0.255628,+0000016,-0000040,-0000010,+0000026,-0000062,+0004159,-0000770,+0000458,-0002341,15:00:43.271936
0.255961,+0000031,-0000035,-0000012,+0000048,-0000065,+0004157,-0000770,+0000458,-0002341,15:00:43.271936
0.256294,+0000013,-0000045,-0000010,+0000030,-0000078,+0004147,-0000770,+0000458,-0002341,15:00:43.272935
0.256627,+0000027,-0000029,-0000018,+0000029,-0000075,+0004132,-0000770,+0000460,-0002337,15:00:43.272935
0.256960,+0000010,-0000016,+0000003,+0000024,-0000090,+0004143,-0000770,+0000460,-0002337,15:00:43.272935
0.257293,+0000000,-0000003,-0000005,+0000028,-0000080,+0004156,-0000770,+0000460,-0002337,15:00:43.272935
0.257626,-0000003,+0000001,+0000006,+0000021,-0000088,+0004144,-0000766,+0000462,-0002339,15:00:43.272935
0.257959,+0000019,-0000032,-0000008,+0000027,-0000100,+0004155,-0000766,+0000462,-0002339,15:00:43.272935
0.258292,+0000027,-0000027,-0000004,+0000026,-0000090,+0004158,-0000766,+0000462,-0002339,15:00:43.273934
0.258625,+0000011,-0000024,-0000005,+0000011,-0000076,+0004152,-0000764,+0000440,-0002341,15:00:43.273934
0.258958,+0000017,-0000026,-0000015,-0000002,-0000087,+0004140,-0000764,+0000440,-0002341,15:00:43.273934
0.259291,+0000004,-0000007,+0000003,+0000023,-0000075,+0004155,-0000764,+0000440,-0002341,15:00:43.273934
0.259624,+0000018,-0000021,-0000011,+0000023,-0000090,+0004159,-0000758,+0000454,-0002311,15:00:43.273934
0.259957,+0000011,-0000040,-0000010,+0000021,-0000086,+0004145,-0000758,+0000454,-0002311,15:00:43.273934
0.260290,+0000023,-0000044,-0000012,+0000026,-0000073,+0004128,-0000758,+0000454,-0002311,15:00:43.273934
0.260623,+0000019,-0000024,-0000011,+0000018,-0000099,+0004140,-0000748,+0000452,-0002308,15:00:43.273934
0.260956,-0000008,+0000013,+0000009,+0000032,-0000087,+0004152,-0000748,+0000452,-0002308,15:00:43.273934
0.261289,+0000013,-0000028,-0000016,+0000033,-0000067,+0004145,-0000748,+0000452,-0002308,15:00:43.276936
0.261622,+0000005,-0000023,+0000000,+0000017,-0000073,+0004133,-0000760,+0000442,-0002321,15:00:43.276936
0.261955,+0000025,-0000043,-0000021,+0000025,-0000083,+0004133,-0000760,+0000442,-0002321,15:00:43.276936
0.262288,+0000032,-0000040,-0000010,+0000044,-0000067,+0004140,-0000760,+0000442,-0002321,15:00:43.276936
0.262621,+0000018,-0000026,-0000016,+0000020,-0000094,+0004145,-0000768,+0000466,-0002311,15:00:43.276936
0.262954,+0000003,-0000005,-0000004,+0000030,-0000086,+0004143,-0000768,+0000466,-0002311,15:00:43.276936
0.263287,+0000005,-0000023,-0000013,+0000025,-0000081,+0004137,-0000768,+0000466,-0002311,15:00:43.276936
0.263620,+0000021,-0000024,-0000004,+0000036,-0000074,+0004158,-0000764,+0000452,-0002314,15:00:43.276936
0.263953,+0000022,-0000032,-0000011,+0000020,-0000087,+0004149,-0000764,+0000452,-0002314,15:00:43.276936
0.264286,+0000011,-0000024,-0000010,+0000025,-0000091,+0004149,-0000764,+0000452,-0002314,15:00:43.276936
0.264619,+0000005,-0000010,-0000016,+0000006,-0000102,+0004155,-0000752,+0000452,-0002328,15:00:43.276936
0.264952,+0000002,-0000037,-0000008,+0000017,-0000080,+0004141,-0000752,+0000452,-0002328,15:00:43.276936
0.265285,+0000019,-0000016,-0000006,+0000011,-0000086,+0004160,-0000752,+0000452,-0002328,15:00:43.276936
0.265618,+0000011,-0000023,-0000008,+0000030,-0000096,+0004149,-0000744,+0000458,-0002340,15:00:43.276936
0.265951,+0000016,-0000037,-0000019,+0000035,-0000076,+0004146,-0000744,+0000458,-0002340,15:00:43.276936
0.266284,+0000016,-0000032,-0000006,+0000013,-0000090,+0004136,-0000744,+0000458,-0002340,15:00:43.276936
0.266617,+0000011,-0000015,-0000008,-0000005,-0000080,+0004130,-0000748,+0000458,-0002331,15:00:43.276936
0.266950,+0000007,-0000013,-0000011,+0000016,-0000094,+0004154,-0000748,+0000458,-0002331,15:00:43.276936
0.267283,+0000006,-0000007,-0000008,+0000024,-0000070,+0004140,-0000748,+0000458,-0002331,15:00:43.276936
0.267616,+0000017,-0000032,-0000002,+0000025,-0000077,+0004157,-0000768,+0000442,-0002305,15:00:43.276936
0.267949,+0000027,-0000039,-0000026,+0000042,-0000102,+0004149,-0000768,+0000442,-0002305,15:00:43.276936
0.268282,+0000008,-0000035,-0000002,+0000012,-0000083,+0004155,-0000768,+0000442,-0002305,15:00:43.276936
0.268615,+0000009,-0000011,-0000011,+0000025,-0000087,+0004167,-0000760,+0000444,-0002328,15:00:43.276936
0.268948,+0000013,-0000021,-0000002,+0000011,-0000057,+0004160,-0000760,+0000444,-0002328,15:00:43.276936
0.269281,+0000005,-0000026,-0000014,+0000027,-0000083,+0004150,-0000760,+0000444,-0002328,15:00:43.276936
0.269614,+0000013,-0000042,-0000016,+0000021,-0000090,+0004149,-0000760,+0000440,-0002319,15:00:43.276936
0.269947,+0000033,-0000039,-0000015,+0000016,-0000086,+0004172,-0000760,+0000440,-0002319,15:00:43.276936
0.270280,+0000005,-0000036,-0000005,+0000027,-0000091,+0004156,-0000760,+0000440,-0002319,15:00:43.276936
0.270613,+0000010,-0000013,-0000013,+0000026,-0000100,+0004159,-0000786,+0000464,-0002328,15:00:43.276936
0.270946,+0000014,-0000005,-0000011,+0000018,-0000045,+0004158,-0000786,+0000464,-0002328,15:00:43.276936
0.271279,+0000000,-0000015,+0000000,+0000021,-0000092,+0004154,-0000786,+0000464,-0002328,15:00:43.276936
0.271612,+0000030,-0000024,-0000024,+0000014,-0000083,+0004163,-0000768,+0000458,-0002339,15:00:43.276936
0.271945,+0000029,-0000048,-0000004,+0000036,-0000087,+0004171,-0000768,+0000458,-0002339,15:00:43.276936
0.272278,+0000008,-0000031,-0000005,+0000024,-0000089,+0004139,-0000768,+0000458,-0002339,15:00:43.276936
0.272611,+0000013,-0000027,+0000003,+0000002,-0000082,+0004154,-0000750,+0000460,-0002320,15:00:43.276936
0.272944,+0000002,-0000008,-0000007,+0000027,-0000087,+0004143,-0000750,+0000460,-0002320,15:00:43.276936
0.273277,+0000005,-0000026,-0000008,+0000038,-0000089,+0004156,-0000750,+0000460,-0002320,15:00:43.276936
0.273610,+0000028,-0000027,-0000010,+0000017,-0000078,+0004166,-0000768,+0000460,-0002319,15:00:43.276936
0.273943,+0000019,-0000037,-0000003,+0000029,-0000083,+0004146,-0000768,+0000460,-0002319,15:00:43.276936
0.274276,+0000027,-0000032,-0000026,+0000021,-0000071,+0004139,-0000768,+0000460,-0002319,15:00:43.276936
0.274609,+0000011,-0000011,-0000004,+0000032,-0000065,+0004149,-0000768,+0000442,-0002320,15:00:43.276936
0.274942,-0000001,-0000018,-0000008,+0000025,-0000093,+0004134,-0000768,+0000442,-0002320,15:00:43.276936
0.275275,+0000022,-0000024,-0000005,+0000030,-0000085,+0004156,-0000768,+0000442,-0002320,15:00:43.276936
0.275608,+0000013,-0000024,-0000016,+0000026,-0000085,+0004159,-0000756,+0000456,-0002314,15:00:43.276936
0.275941,+0000019,-0000034,-0000005,+0000039,-0000062,+0004137,-0000756,+0000456,-0002314,15:00:43.276936
0.276274,+0000010,-0000021,-0000008,+0000017,-0000094,+0004151,-0000756,+0000456,-0002314,15:00:43.276936
0.276607,+0000010,-0000007,-0000008,+0000022,-0000095,+0004141,-0000758,+0000466,-0002320,15:00:43.276936
0.276940,+0000004,-0000019,-0000005,+0000016,-0000084,+0004140,-0000758,+0000466,-0002320,15:00:43.276936
0.277273,+0000030,-0000024,-0000006,+0000026,-0000094,+0004148,-0000758,+0000466,-0002320,15:00:43.276936
0.277606,+0000022,-0000035,-0000017,+0000015,-0000093,+0004141,-0000756,+0000456,-0002326,15:00:43.276936
0.277939,+0000017,-0000034,-0000006,+0000029,-0000080,+0004145,-0000756,+0000456,-0002326,15:00:43.276936
0.278272,+0000003,-0000006,+0000001,+0000007,-0000081,+0004142,-0000756,+0000456,-0002326,15:00:43.276936
0.278605,+0000006,-0000020,-0000016,+0000027,-0000081,+0004140,-0000762,+0000446,-0002311,15:00:43.276936
0.278938,+0000005,-0000012,-0000007,+0000019,-0000106,+0004156,-0000762,+0000446,-0002311,15:00:43.276936
0.279271,+0000016,-0000024,+0000001,+0000035,-0000081,+0004141,-0000762,+0000446,-0002311,15:00:43.276936
0.279604,+0000017,-0000035,-0000015,+0000005,-0000105,+0004132,-0000762,+0000454,-0002325,15:00:43.276936
0.279937,+0000015,-0000029,-0000007,+0000017,-0000094,+0004145,-0000762,+0000454,-0002325,15:00:43.276936
0.280270,+0000016,-0000010,-0000013,+0000027,-0000099,+0004159,-0000762,+0000454,-0002325,15:00:43.276936
0.280603,+0000004,-0000019,-0000012,+0000017,-0000106,+0004124,-0000756,+0000466,-0002326,15:00:43.276936
0.280936,+0000013,-0000013,-0000005,+0000017,-0000084,+0004135,-0000756,+0000466,-0002326,15:00:43.276936
0.281269,+0000018,-0000020,-0000005,+0000037,-0000080,+0004138,-0000756,+0000466,-0002326,15:00:43.276936
0.281602,+0000014,-0000018,+0000000,+0000014,-0000099,+0004136,-0000772,+0000460,-0002337,15:00:43.276936
0.281935,+0000022,-0000034,-0000006,+0000014,-0000078,+0004165,-0000772,+0000460,-0002337,15:00:43.276936
0.282268,+0000009,-0000018,-0000016,+0000000,-0000076,+0004162,-0000772,+0000460,-0002337,15:00:43.276936
0.282601,+0000005,-0000020,+0000003,+0000009,-0000085,+0004171,-0000772,+0000454,-0002328,15:00:43.276936
0.282934,+0000011,-0000020,-0000013,+0000026,-0000079,+0004174,-0000772,+0000454,-0002328,15:00:43.276936
0.283267,+0000021,-0000039,-0000007,+0000023,-0000087,+0004159,-0000772,+0000454,-0002328,15:00:43.278297
0.283600,+0000017,-0000029,-0000012,+0000023,-0000082,+0004154,-0000770,+0000472,-0002317,15:00:43.278297
0.283933,+0000014,-0000024,-0000007,+0000042,-0000084,+0004148,-0000770,+0000472,-0002317,15:00:43.278297
0.284266,+0000014,-0000029,-0000019,+0000041,-0000073,+0004143,-0000770,+0000472,-0002317,15:00:43.278297
0.284599,+0000003,-0000005,-0000010,+0000028,-0000083,+0004170,-0000764,+0000464,-0002324,15:00:43.278297
0.284932,+0000008,-0000015,-0000010,+0000023,-0000101,+0004169,-0000764,+0000464,-0002324,15:00:43.278297
0.285265,+0000014,-0000023,-0000008,-0000012,-0000092,+0004166,-0000764,+0000464,-0002324,15:00:43.278297
0.285598,+0000020,-0000042,-0000008,+0000024,-0000057,+0004153,-0000768,+0000460,-0002329,15:00:43.280304
0.285931,+0000011,-0000038,-0000010,+0000015,-0000091,+0004154,-0000768,+0000460,-0002329,15:00:43.280304
0.286264,+0000010,-0000013,-0000005,+0000012,-0000074,+0004160,-0000768,+0000460,-0002329,15:00:43.280304
0.286597,+0000002,-0000004,-0000005,+0000011,-0000082,+0004144,-0000770,+0000470,-0002319,15:00:43.280304
0.286930,+0000019,-0000022,-0000005,+0000006,-0000098,+0004151,-0000770,+0000470,-0002319,15:00:43.280304
0.287263,+0000017,-0000032,-0000015,+0000026,-0000074,+0004146,-0000770,+0000470,-0002319,15:00:43.280304
0.287596,+0000027,-0000034,+0000001,+0000012,-0000080,+0004151,-0000760,+0000454,-0002335,15:00:43.280304
0.287929,+0000011,-0000010,-0000013,+0000019,-0000112,+0004153,-0000760,+0000454,-0002335,15:00:43.280304
0.288262,-0000001,-0000002,-0000018,+0000020,-0000073,+0004145,-0000760,+0000454,-0002335,15:00:43.280304
0.288595,+0000000,-0000007,+0000004,+0000010,-0000067,+0004162,-0000768,+0000458,-0002316,15:00:43.280304
0.288928,+0000019,-0000023,-0000010,+0000027,-0000076,+0004166,-0000768,+0000458,-0002316,15:00:43.280304
0.289261,+0000020,-0000048,-0000011,+0000030,-0000065,+0004171,-0000768,+0000458,-0002316,15:00:43.280304
0.289594,+0000032,-0000037,-0000005,+0000042,-0000085,+0004190,-0000754,+0000468,-0002354,15:00:43.280304
0.289927,+0000014,-0000010,-0000003,+0000033,-0000098,+0004161,-0000754,+0000468,-0002354,15:00:43.280304
0.290260,+0000006,-0000019,-0000021,+0000021,-0000087,+0004170,-0000754,+0000468,-0002354,15:00:43.280304
0.290593,+0000009,-0000021,+0000004,+0000019,-0000079,+0004147,-0000770,+0000458,-0002327,15:00:43.280304
0.290926,+0000009,-0000015,-0000005,+0000029,-0000080,+0004148,-0000770,+0000458,-0002327,15:00:43.280304
0.291259,+0000024,-0000046,-0000019,+0000010,-0000098,+0004142,-0000770,+0000458,-0002327,15:00:43.280304
0.291592,+0000027,-0000023,-0000010,+0000007,-0000071,+0004156,-0000766,+0000466,-0002350,15:00:43.280304
0.291925,+0000014,-0000020,+0000000,+0000011,-0000085,+0004147,-0000766,+0000466,-0002350,15:00:43.280304
0.292258,+0000013,-0000016,-0000005,+0000028,-0000085,+0004117,-0000766,+0000466,-0002350,15:00:43.280304
0.292591,+0000005,-0000024,-0000007,+0000008,-0000082,+0004133,-0000772,+0000476,-0002335,15:00:43.280304
0.292924,+0000021,-0000018,-0000011,+0000008,-0000083,+0004144,-0000772,+0000476,-0002335,15:00:43.280304
0.293260,+0000013,-0000035,-0000010,+0000028,-0000099,+0004142,-0000772,+0000476,-0002335,15:00:43.319655
0.293591,+0000011,-0000033,-0000018,+0000012,-0000095,+0004148,-0000760,+0000484,-0002344,15:00:43.319655
0.293929,+0000005,-0000011,+0000001,+0000036,-0000095,+0004149,-0000760,+0000484,-0002344,15:00:43.319655
0.294407,+0000022,-0000034,-0000002,+0000025,-0000089,+0004147,-0000760,+0000484,-0002344,15:00:43.319655
0.294609,+0000022,-0000034,-0000002,+0000025,-0000080,+0004138,-0000784,+0000454,-0002349,15:00:43.319655
0.294985,+0000014,-0000026,-0000005,+0000035,-0000084,+0004172,-0000784,+0000454,-0002349,15:00:43.319655
0.295413,+0000013,-0000031,-0000010,+0000021,-0000090,+0004154,-0000784,+0000454,-0002349,15:00:43.319655
0.295583,+0000016,-0000043,-0000005,+0000018,-0000090,+0004154,-0000768,+0000482,-0002345,15:00:43.319655
0.295922,+0000027,-0000024,-0000011,+0000018,-0000066,+0004155,-0000768,+0000482,-0002345,15:00:43.319655
0.296323,-0000004,-0000019,-0000013,+0000036,-0000064,+0004138,-0000768,+0000482,-0002345,15:00:43.319655
0.296587,+0000019,-0000019,-0000013,+0000024,-0000089,+0004147,-0000760,+0000466,-0002335,15:00:43.319655
0.296996,+0000008,-0000010,-0000016,+0000013,-0000095,+0004149,-0000760,+0000466,-0002335,15:00:43.319655
0.297481,+0000011,-0000032,-0000010,+0000034,-0000065,+0004143,-0000760,+0000466,-0002335,15:00:43.319655
0.297669,+0000011,-0000032,-0000010,+0000020,-0000088,+0004154,-0000760,+0000470,-0002315,15:00:43.319655
0.297922,+0000008,-0000004,-0000008,+0000020,-0000088,+0004154,-0000760,+0000470,-0002315,15:00:43.319655
0.298253,+0000003,-0000003,-0000010,+0000023,-0000084,+0004154,-0000760,+0000470,-0002315,15:00:43.319655
0.298590,+0000003,-0000012,+0000000,+0000011,-0000094,+0004142,-0000756,+0000458,-0002351,15:00:43.319655
0.298921,+0000004,-0000015,-0000016,+0000012,-0000109,+0004138,-0000756,+0000458,-0002351,15:00:43.319655
0.299251,+0000008,-0000018,-0000005,+0000014,-0000101,+0004137,-0000756,+0000458,-0002351,15:00:43.320656
0.299584,+0000010,-0000021,-0000005,+0000021,-0000080,+0004124,-0000756,+0000478,-0002314,15:00:43.320656
0.299918,+0000016,-0000024,-0000013,+0000024,-0000109,+0004143,-0000756,+0000478,-0002314,15:00:43.320656
0.300252,+0000005,-0000015,+0000008,+0000014,-0000083,+0004153,-0000756,+0000478,-0002314,15:00:43.320656
0.300584,+0000008,-0000024,-0000011,+0000017,-0000084,+0004166,-0000770,+0000478,-0002311,15:00:43.320656
0.300917,+0000011,-0000023,-0000008,+0000024,-0000089,+0004132,-0000770,+0000478,-0002311,15:00:43.320656
0.301249,+0000041,-0000056,-0000013,+0000016,-0000097,+0004143,-0000770,+0000478,-0002311,15:00:43.320656
0.301583,+0000010,-0000029,-0000002,+0000022,-0000080,+0004144,-0000762,+0000464,-0002339,15:00:43.320656
0.301916,+0000003,-0000008,-0000015,+0000019,-0000076,+0004144,-0000762,+0000464,-0002339,15:00:43.320656
0.302248,+0000008,-0000018,-0000003,+0000028,-0000096,+0004156,-0000762,+0000464,-0002339,15:00:43.320656
0.302581,-0000001,-0000026,+0000001,+0000020,-0000085,+0004148,-0000774,+0000466,-0002339,15:00:43.320656
0.302914,+0000038,-0000040,-0000024,+0000017,-0000074,+0004148,-0000774,+0000466,-0002339,15:00:43.320656
0.303247,+0000002,-0000036,+0000001,+0000011,-0000079,+0004142,-0000774,+0000466,-0002339,15:00:43.320656
0.303580,+0000005,-0000021,-0000027,+0000019,-0000084,+0004170,-0000788,+0000462,-0002331,15:00:43.320656
0.303913,+0000008,-0000008,+0000000,+0000013,-0000100,+0004174,-0000788,+0000462,-0002331,15:00:43.320656
0.304246,+0000003,-0000018,-0000010,+0000029,-0000076,+0004134,-0000788,+0000462,-0002331,15:00:43.328667
0.304579,+0000003,-0000023,-0000004,+0000021,-0000087,+0004152,-0000768,+0000488,-0002327,15:00:43.328667
0.304912,+0000025,-0000035,-0000007,+0000029,-0000078,+0004132,-0000768,+0000488,-0002327,15:00:43.328667
0.305245,+0000018,-0000019,-0000005,+0000019,-0000079,+0004139,-0000768,+0000488,-0002327,15:00:43.328667
0.305578,+0000019,-0000018,-0000010,+0000021,-0000087,+0004168,-0000754,+0000472,-0002340,15:00:43.328667
0.305911,+0000002,-0000010,-0000003,+0000017,-0000074,+0004147,-0000754,+0000472,-0002340,15:00:43.328667
0.306244,+0000011,-0000029,-0000003,+0000026,-0000093,+0004159,-0000754,+0000472,-0002340,15:00:43.328667
0.306577,+0000010,-0000032,-0000018,+0000035,-0000092,+0004160,-0000782,+0000468,-0002345,15:00:43.328667
0.306910,+0000028,-0000026,-0000004,+0000020,-0000071,+0004163,-0000782,+0000468,-0002345,15:00:43.328667
0.307243,+0000024,-0000031,-0000010,+0000028,-0000067,+0004148,-0000782,+0000468,-0002345,15:00:43.328667
0.307576,+0000016,-0000023,-0000026,+0000025,-0000084,+0004170,-0000772,+0000468,-0002334,15:00:43.328667
0.307909,+0000006,-0000016,+0000007,+0000033,-0000074,+0004155,-0000772,+0000468,-0002334,15:00:43.328667
0.308242,+0000005,-0000023,-0000019,+0000029,-0000090,+0004169,-0000772,+0000468,-0002334,15:00:43.328667
0.308575,+0000006,-0000027,-0000013,+0000025,-0000093,+0004165,-0000740,+0000480,-0002314,15:00:43.328667
0.308908,+0000016,-0000042,-0000016,+0000025,-0000076,+0004155,-0000740,+0000480,-0002314,15:00:43.328667
0.309241,+0000018,-0000016,+0000001,+0000018,-0000072,+0004155,-0000740,+0000480,-0002314,15:00:43.328667
0.309574,+0000021,-0000016,-0000021,+0000022,-0000081,+0004145,-0000764,+0000494,-0002317,15:00:43.328667
0.309907,+0000005,-0000024,-0000010,+0000025,-0000086,+0004147,-0000764,+0000494,-0002317,15:00:43.328667
0.310240,+0000013,-0000021,-0000007,+0000016,-0000065,+0004137,-0000764,+0000494,-0002317,15:00:43.328667
0.310573,+0000017,-0000024,+0000006,+0000020,-0000087,+0004140,-0000772,+0000466,-0002340,15:00:43.328667
0.310906,+0000025,-0000040,-0000016,+0000029,-0000110,+0004149,-0000772,+0000466,-0002340,15:00:43.329669
0.311239,+0000015,-0000026,-0000015,+0000015,-0000070,+0004151,-0000772,+0000466,-0002340,15:00:43.329669
0.311572,+0000008,-0000021,-0000003,+0000024,-0000077,+0004152,-0000778,+0000472,-0002337,15:00:43.329669
0.311905,+0000017,-0000009,-0000007,+0000019,-0000096,+0004139,-0000778,+0000472,-0002337,15:00:43.331667
0.312238,+0000010,-0000008,+0000012,+0000018,-0000084,+0004163,-0000778,+0000472,-0002337,15:00:43.331667
0.312571,+0000030,-0000034,-0000018,+0000018,-0000086,+0004158,-0000748,+0000488,-0002323,15:00:43.331667
0.312904,+0000022,-0000040,-0000004,+0000031,-0000084,+0004139,-0000748,+0000488,-0002323,15:00:43.331667
0.313237,+0000021,-0000034,-0000013,+0000009,-0000090,+0004142,-0000748,+0000488,-0002323,15:00:43.331667
0.313570,+0000002,-0000021,-0000021,+0000027,-0000080,+0004149,-0000764,+0000474,-0002342,15:00:43.331667
0.313903,-0000003,-0000007,+0000001,+0000039,-0000092,+0004154,-0000764,+0000474,-0002342,15:00:43.331667
0.314236,+0000009,-0000028,-0000007,+0000019,-0000095,+0004158,-0000764,+0000474,-0002342,15:00:43.331667
0.314569,+0000010,-0000031,-0000018,+0000002,-0000104,+0004162,-0000774,+0000464,-0002338,15:00:43.331667
0.314902,+0000016,-0000032,-0000010,+0000033,-0000093,+0004154,-0000774,+0000464,-0002338,15:00:43.331667
0.315235,+0000021,-0000026,-0000014,+0000030,-0000101,+0004155,-0000774,+0000464,-0002338,15:00:43.331667
0.315568,+0000000,+0000003,-0000010,+0000020,-0000090,+0004157,-0000770,+0000474,-0002348,15:00:43.331667
0.315901,+0000017,-0000018,-0000008,+0000023,-0000100,+0004130,-0000770,+0000474,-0002348,15:00:43.331667
0.316234,-0000001,-0000018,+0000001,+0000020,-0000093,+0004149,-0000770,+0000474,-0002348,15:00:43.331667
0.316567,+0000033,-0000042,-0000010,+0000028,-0000068,+0004147,-0000772,+0000478,-0002333,15:00:43.331667
0.316900,+0000014,-0000032,-0000013,+0000016,-0000066,+0004147,-0000772,+0000478,-0002333,15:00:43.331667
0.317233,+0000008,-0000015,+0000005,+0000005,-0000076,+0004143,-0000772,+0000478,-0002333,15:00:43.331667
0.317566,+0000005,-0000029,-0000019,+0000018,-0000070,+0004151,-0000756,+0000472,-0002331,15:00:43.331667
0.317899,-0000006,-0000010,+0000012,+0000018,-0000105,+0004139,-0000756,+0000472,-0002331,15:00:43.331667
0.318232,+0000025,-0000028,-0000015,+0000014,-0000094,+0004154,-0000756,+0000472,-0002331,15:00:43.331667
0.318565,+0000022,-0000043,-0000007,+0000036,-0000092,+0004145,-0000770,+0000470,-0002350,15:00:43.331667
0.318898,+0000021,-0000024,-0000017,+0000016,-0000080,+0004135,-0000770,+0000470,-0002350,15:00:43.331667
0.319231,+0000010,-0000013,-0000003,+0000014,-0000080,+0004153,-0000770,+0000470,-0002350,15:00:43.331667
0.319564,+0000024,-0000026,-0000010,+0000015,-0000100,+0004154,-0000754,+0000470,-0002345,15:00:43.331667
0.319897,-0000009,-0000005,-0000002,+0000029,-0000053,+0004146,-0000754,+0000470,-0002345,15:00:43.331667
0.320230,+0000019,-0000032,-0000008,+0000014,-0000080,+0004172,-0000754,+0000470,-0002345,15:00:43.331667
0.320563,+0000021,-0000039,-0000008,+0000021,-0000056,+0004167,-0000784,+0000462,-0002327,15:00:43.331667
0.320896,+0000005,-0000032,-0000013,+0000023,-0000092,+0004174,-0000784,+0000462,-0002327,15:00:43.331667
0.321229,+0000008,-0000011,+0000005,+0000027,-0000079,+0004141,-0000784,+0000462,-0002327,15:00:43.331667
0.321562,+0000022,-0000037,-0000013,+0000007,-0000097,+0004144,-0000756,+0000472,-0002324,15:00:43.331667
0.321895,+0000005,-0000003,-0000005,+0000011,-0000079,+0004151,-0000756,+0000472,-0002324,15:00:43.331667
0.322228,+0000019,-0000029,-0000008,+0000024,-0000078,+0004157,-0000756,+0000472,-0002324,15:00:43.331667
0.322561,+0000030,-0000034,-0000003,+0000025,-0000085,+0004168,-0000774,+0000470,-0002332,15:00:43.331667
0.322894,+0000003,-0000027,-0000007,+0000017,-0000091,+0004188,-0000774,+0000470,-0002332,15:00:43.331667
0.323229,+0000014,-0000026,-0000010,+0000014,-0000092,+0004166,-0000774,+0000470,-0002332,15:00:43.331667
0.323560,+0000010,+0000000,+0000000,+0000007,-0000088,+0004185,-0000774,+0000468,-0002332,15:00:43.331667
0.323893,+0000014,-0000042,-0000019,+0000020,-0000087,+0004162,-0000774,+0000468,-0002332,15:00:43.331667
0.324226,+0000011,-0000024,+0000001,+0000030,-0000095,+0004161,-0000774,+0000468,-0002332,15:00:43.331667
0.324559,+0000010,-0000029,-0000008,+0000029,-0000094,+0004145,-0000766,+0000478,-0002332,15:00:43.333740
0.324892,+0000025,-0000043,-0000019,+0000022,-0000105,+0004172,-0000766,+0000478,-0002332,15:00:43.333740
0.325225,+0000000,-0000016,-0000006,+0000027,-0000078,+0004156,-0000766,+0000478,-0002332,15:00:43.333740
0.325558,+0000006,-0000003,-0000003,+0000031,-0000092,+0004146,-0000780,+0000448,-0002338,15:00:43.335669
0.325891,+0000022,-0000024,-0000007,+0000038,-0000085,+0004138,-0000780,+0000448,-0002338,15:00:43.335669
0.326224,+0000008,-0000021,+0000001,+0000029,-0000061,+0004140,-0000780,+0000448,-0002338,15:00:43.335669
0.326557,+0000029,-0000048,-0000019,+0000036,-0000060,+0004137,-0000774,+0000474,-0002359,15:00:43.335669
0.326890,+0000025,-0000031,-0000007,+0000035,-0000094,+0004164,-0000774,+0000474,-0002359,15:00:43.335669
0.327223,-0000001,-0000020,-0000005,+0000029,-0000076,+0004161,-0000774,+0000474,-0002359,15:00:43.335669
0.327556,+0000007,-0000015,-0000010,+0000034,-0000079,+0004150,-0000762,+0000462,-0002344,15:00:43.335669
0.327889,+0000010,-0000016,-0000010,+0000012,-0000074,+0004127,-0000762,+0000462,-0002344,15:00:43.335669
0.328223,+0000024,-0000043,-0000002,+0000024,-0000080,+0004144,-0000762,+0000462,-0002344,15:00:43.335669
0.328555,+0000028,-0000026,-0000020,+0000017,-0000070,+0004141,-0000756,+0000456,-0002342,15:00:43.335669
0.328888,+0000010,-0000032,-0000003,+0000017,-0000078,+0004156,-0000756,+0000456,-0002342,15:00:43.335669
0.329223,-0000006,+0000003,+0000002,+0000018,-0000079,+0004162,-0000756,+0000456,-0002342,15:00:43.335669
0.329554,+0000007,-0000013,+0000004,+0000023,-0000094,+0004170,-0000772,+0000472,-0002340,15:00:43.335669
0.329887,+0000008,-0000023,-0000018,+0000015,-0000080,+0004153,-0000772,+0000472,-0002340,15:00:43.335669
0.330220,+0000013,-0000036,-0000008,+0000015,-0000092,+0004146,-0000772,+0000472,-0002340,15:00:43.335669
0.330553,+0000019,-0000023,-0000003,+0000022,-0000092,+0004148,-0000754,+0000476,-0002328,15:00:43.335669
0.330886,+0000013,-0000024,-0000013,+0000007,-0000085,+0004148,-0000754,+0000476,-0002328,15:00:43.335669
0.331220,-0000006,+0000001,-0000004,+0000014,-0000099,+0004158,-0000754,+0000476,-0002328,15:00:43.335669
0.331552,+0000014,-0000034,-0000010,+0000013,-0000083,+0004169,-0000764,+0000458,-0002313,15:00:43.335669
0.331885,+0000019,-0000020,-0000002,+0000015,-0000075,+0004163,-0000764,+0000458,-0002313,15:00:43.335669
0.332220,+0000026,-0000034,-0000015,+0000025,-0000085,+0004145,-0000764,+0000458,-0002313,15:00:43.335669
0.332551,+0000016,-0000024,-0000016,+0000016,-0000071,+0004127,-0000762,+0000468,-0002338,15:00:43.335669
0.332884,+0000005,+0000003,+0000000,+0000014,-0000084,+0004126,-0000762,+0000468,-0002338,15:00:43.335669
0.333220,+0000016,-0000029,-0000010,+0000041,-0000095,+0004148,-0000762,+0000468,-0002338,15:00:43.335669
0.333550,+0000008,-0000008,-0000014,+0000030,-0000104,+0004160,-0000768,+0000476,-0002332,15:00:43.335669
0.333883,+0000009,-0000021,+0000001,+0000027,-0000093,+0004148,-0000768,+0000476,-0002332,15:00:43.335669
0.334216,+0000027,-0000048,-0000007,+0000008,-0000069,+0004152,-0000768,+0000476,-0002332,15:00:43.335669
0.334549,+0000011,-0000032,-0000016,+0000030,-0000090,+0004140,-0000754,+0000464,-0002325,15:00:43.335669
0.334882,+0000005,-0000018,-0000008,+0000017,-0000085,+0004159,-0000754,+0000464,-0002325,15:00:43.335669
0.335216,+0000022,-0000021,-0000015,+0000027,-0000069,+0004139,-0000754,+0000464,-0002325,15:00:43.335669
0.335548,+0000003,-0000013,+0000005,+0000009,-0000074,+0004145,-0000758,+0000468,-0002324,15:00:43.335669
0.335881,+0000014,-0000027,+0000003,+0000023,-0000078,+0004156,-0000758,+0000468,-0002324,15:00:43.335669
0.336216,+0000021,-0000024,-0000016,+0000018,-0000086,+0004150,-0000758,+0000468,-0002324,15:00:43.335669
0.336547,+0000013,-0000026,-0000005,+0000019,-0000098,+0004138,-0000770,+0000468,-0002352,15:00:43.335669
0.336880,+0000009,-0000023,-0000006,+0000028,-0000082,+0004146,-0000770,+0000468,-0002352,15:00:43.336668
0.337216,-0000006,-0000005,-0000010,+0000022,-0000104,+0004145,-0000770,+0000468,-0002352,15:00:43.336668
0.337546,+0000020,-0000015,-0000007,+0000021,-0000081,+0004157,-0000762,+0000480,-0002335,15:00:43.336668
0.337879,+0000020,-0000035,-0000006,+0000033,-0000091,+0004144,-0000762,+0000480,-0002335,15:00:43.336668
0.338216,+0000019,-0000027,-0000010,+0000022,-0000070,+0004166,-0000762,+0000480,-0002335,15:00:43.336668
0.338545,+0000011,-0000037,-0000010,+0000014,-0000079,+0004161,-0000770,+0000476,-0002365,15:00:43.336668
0.338878,+0000022,-0000018,-0000011,+0000027,-0000095,+0004160,-0000770,+0000476,-0002365,15:00:43.336668
0.339216,-0000011,-0000016,+0000000,+0000015,-0000068,+0004152,-0000770,+0000476,-0002365,15:00:43.336668
0.339544,-0000006,-0000015,+0000001,+0000024,-0000068,+0004147,-0000764,+0000464,-0002339,15:00:43.336668
0.339877,+0000036,-0000040,-0000019,+0000030,-0000075,+0004173,-0000764,+0000464,-0002339,15:00:43.336668
0.340215,+0000010,-0000029,-0000005,+0000039,-0000080,+0004152,-0000764,+0000464,-0002339,15:00:43.336668
0.340543,+0000019,-0000037,-0000016,+0000014,-0000091,+0004170,-0000786,+0000470,-0002331,15:00:43.336668
0.340876,-0000003,-0000015,-0000014,+0000029,-0000086,+0004168,-0000786,+0000470,-0002331,15:00:43.336668
0.341214,+0000003,-0000005,-0000004,+0000017,-0000072,+0004147,-0000786,+0000470,-0002331,15:00:43.336668
0.341542,+0000017,-0000024,-0000011,+0000040,-0000077,+0004153,-0000776,+0000468,-0002356,15:00:43.336668
0.341875,+0000024,-0000045,-0000018,+0000015,-0000066,+0004133,-0000776,+0000468,-0002356,15:00:43.336668
0.342214,+0000022,-0000032,-0000008,+0000026,-0000062,+0004148,-0000776,+0000468,-0002356,15:00:43.336668
0.342541,+0000022,-0000018,-0000013,+0000018,-0000084,+0004152,-0000768,+0000470,-0002332,15:00:43.336668
0.342874,-0000001,+0000003,-0000003,+0000001,-0000092,+0004153,-0000768,+0000470,-0002332,15:00:43.336668
0.343213,+0000008,-0000007,+0000000,+0000051,-0000091,+0004141,-0000768,+0000470,-0002332,15:00:43.372955
0.343540,+0000022,-0000026,-0000005,+0000037,-0000069,+0004135,-0000762,+0000470,-0002354,15:00:43.372955
0.343880,+0000022,-0000040,-0000010,+0000021,-0000094,+0004140,-0000762,+0000470,-0002354,15:00:43.372955
0.344430,+0000002,-0000003,-0000016,+0000019,-0000082,+0004148,-0000762,+0000470,-0002354,15:00:43.372955
0.344630,+0000014,-0000018,+0000001,+0000020,-0000082,+0004148,-0000762,+0000466,-0002331,15:00:43.372955
0.344980,-0000005,-0000018,+0000000,+0000026,-0000079,+0004160,-0000762,+0000466,-0002331,15:00:43.372955
0.345407,+0000009,-0000026,-0000005,+0000009,-0000102,+0004163,-0000762,+0000466,-0002331,15:00:43.372955
0.345572,+0000009,-0000026,-0000005,+0000009,-0000102,+0004163,-0000750,+0000454,-0002344,15:00:43.372955
0.345871,+0000017,-0000020,-0000010,+0000031,-0000068,+0004143,-0000750,+0000454,-0002344,15:00:43.372955
0.346216,+0000006,-0000018,+0000001,+0000012,-0000117,+0004152,-0000750,+0000454,-0002344,15:00:43.372955
0.346537,+0000013,-0000023,-0000004,+0000016,-0000089,+0004169,-0000766,+0000464,-0002331,15:00:43.372955
0.346872,+0000003,-0000016,-0000008,+0000024,-0000091,+0004154,-0000766,+0000464,-0002331,15:00:43.372955
0.347209,+0000025,-0000034,-0000016,+0000014,-0000084,+0004138,-0000766,+0000464,-0002331,15:00:43.372955
0.347536,+0000016,-0000021,+0000001,+0000044,-0000078,+0004158,-0000764,+0000464,-0002327,15:00:43.372955
0.347869,+0000027,-0000029,-0000008,+0000016,-0000075,+0004132,-0000764,+0000464,-0002327,15:00:43.372955
0.348208,+0000016,-0000028,-0000010,+0000011,-0000081,+0004136,-0000764,+0000464,-0002327,15:00:43.372955
0.348535,+0000009,-0000019,-0000010,+0000018,-0000083,+0004114,-0000752,+0000454,-0002333,15:00:43.372955
0.348868,+0000005,-0000008,+0000000,+0000015,-0000096,+0004139,-0000752,+0000454,-0002333,15:00:43.372955
0.349207,+0000009,-0000011,-0000008,+0000029,-0000091,+0004137,-0000752,+0000454,-0002333,15:00:43.372955
0.349534,+0000018,-0000016,-0000004,+0000040,-0000086,+0004135,-0000758,+0000470,-0002342,15:00:43.372955
0.349883,+0000021,-0000042,-0000016,+0000014,-0000092,+0004134,-0000758,+0000470,-0002342,15:00:43.372955
0.350200,-0000003,-0000019,+0000003,+0000021,-0000075,+0004135,-0000758,+0000470,-0002342,15:00:43.372955
0.350533,+0000014,-0000018,-0000008,+0000021,-0000078,+0004130,-0000776,+0000464,-0002341,15:00:43.372955
0.350866,+0000006,-0000011,+0000000,+0000025,-0000070,+0004152,-0000776,+0000464,-0002341,15:00:43.372955
0.351199,+0000014,-0000016,-0000006,+0000012,-0000094,+0004151,-0000776,+0000464,-0002341,15:00:43.372955
0.351705,+0000025,-0000034,-0000021,+0000012,-0000084,+0004163,-0000782,+0000468,-0002328,15:00:43.372955
0.351993,+0000005,-0000028,-0000004,+0000013,-0000091,+0004155,-0000782,+0000468,-0002328,15:00:43.372955
0.352201,+0000018,-0000044,-0000010,-0000001,-0000102,+0004155,-0000782,+0000468,-0002328,15:00:43.372955
0.352531,+0000017,-0000008,-0000008,+0000020,-0000099,+0004162,-0000778,+0000480,-0002343,15:00:43.372955
0.352866,+0000008,-0000026,-0000019,+0000017,-0000063,+0004146,-0000778,+0000480,-0002343,15:00:43.372955
0.353198,+0000013,-0000022,-0000008,+0000014,-0000088,+0004138,-0000778,+0000480,-0002343,15:00:43.372955
0.353530,+0000011,-0000022,-0000008,+0000038,-0000086,+0004140,-0000776,+0000470,-0002342,15:00:43.372955
0.353863,+0000031,-0000043,-0000008,+0000010,-0000077,+0004154,-0000776,+0000470,-0002342,15:00:43.372955
0.354197,+0000007,-0000024,-0000008,+0000039,-0000094,+0004152,-0000776,+0000470,-0002342,15:00:43.372955
0.354529,+0000002,-0000023,-0000011,+0000026,-0000065,+0004150,-0000762,+0000470,-0002341,15:00:43.372955
0.354862,-0000007,-0000013,-0000013,+0000012,-0000056,+0004140,-0000762,+0000470,-0002341,15:00:43.372955
0.355195,+0000005,-0000015,-0000001,+0000031,-0000081,+0004153,-0000762,+0000470,-0002341,15:00:43.372955
0.355528,+0000017,-0000037,-0000001,+0000018,-0000075,+0004160,-0000758,+0000476,-0002337,15:00:43.372955
0.355868,+0000032,-0000034,-0000013,+0000013,-0000067,+0004159,-0000758,+0000476,-0002337,15:00:43.372955
0.356194,+0000014,-0000034,-0000013,+0000023,-0000074,+0004153,-0000758,+0000476,-0002337,15:00:43.372955
0.356527,-0000018,+0000001,+0000005,+0000024,-0000086,+0004153,-0000766,+0000474,-0002343,15:00:43.372955
0.356860,+0000011,-0000011,-0000008,+0000043,-0000076,+0004171,-0000766,+0000474,-0002343,15:00:43.372955
0.357193,+0000011,-0000027,-0000006,+0000032,-0000084,+0004145,-0000766,+0000474,-0002343,15:00:43.372955
0.357526,+0000003,-0000031,+0000004,+0000030,-0000082,+0004139,-0000750,+0000452,-0002344,15:00:43.372955
0.357859,+0000030,-0000042,-0000030,+0000035,-0000079,+0004157,-0000750,+0000452,-0002344,15:00:43.372955
0.358192,+0000013,-0000011,-0000018,+0000029,-0000094,+0004133,-0000750,+0000452,-0002344,15:00:43.372955
0.358525,+0000006,-0000012,-0000011,+0000031,-0000083,+0004159,-0000766,+0000474,-0002343,15:00:43.372955
0.358858,+0000021,-0000024,-0000007,+0000014,-0000088,+0004146,-0000766,+0000474,-0002343,15:00:43.372955
0.359191,+0000016,-0000011,-0000011,+0000015,-0000073,+0004137,-0000766,+0000474,-0002343,15:00:43.372955
0.359524,+0000024,-0000039,-0000013,+0000010,-0000096,+0004152,-0000758,+0000450,-0002334,15:00:43.372955
0.359857,+0000015,-0000027,-0000011,+0000018,-0000079,+0004153,-0000758,+0000450,-0002334,15:00:43.372955
0.360190,+0000008,-0000008,-0000011,+0000026,-0000068,+0004150,-0000758,+0000450,-0002334,15:00:43.377945
0.360523,+0000017,-0000018,-0000002,+0000013,-0000083,+0004149,-0000750,+0000466,-0002317,15:00:43.377945
0.360856,-0000003,-0000016,-0000004,+0000024,-0000079,+0004153,-0000750,+0000466,-0002317,15:00:43.377945
0.361189,+0000035,-0000026,-0000008,+0000023,-0000082,+0004140,-0000750,+0000466,-0002317,15:00:43.377945
0.361522,+0000011,-0000043,-0000008,+0000033,-0000072,+0004133,-0000768,+0000470,-0002319,15:00:43.377945
0.361855,+0000019,-0000019,-0000011,+0000017,-0000077,+0004166,-0000768,+0000470,-0002319,15:00:43.377945
0.362188,+0000014,-0000034,-0000015,+0000012,-0000085,+0004154,-0000768,+0000470,-0002319,15:00:43.377945
0.362521,-0000011,-0000010,-0000002,+0000015,-0000081,+0004148,-0000776,+0000474,-0002338,15:00:43.377945
0.362854,+0000018,-0000011,-0000012,+0000003,-0000093,+0004164,-0000776,+0000474,-0002338,15:00:43.377945
0.363187,+0000017,-0000024,+0000004,+0000024,-0000103,+0004150,-0000776,+0000474,-0002338,15:00:43.377945
0.363520,+0000022,-0000047,-0000018,+0000028,-0000096,+0004170,-0000774,+0000478,-0002364,15:00:43.377945
0.363853,+0000008,-0000029,-0000010,+0000009,-0000090,+0004157,-0000774,+0000478,-0002364,15:00:43.377945
0.364186,+0000016,-0000018,-0000013,+0000031,-0000084,+0004134,-0000774,+0000478,-0002364,15:00:43.377945
0.364519,+0000005,-0000012,+0000003,+0000029,-0000080,+0004140,-0000774,+0000476,-0002339,15:00:43.377945
0.364852,+0000007,-0000013,-0000011,+0000035,-0000103,+0004149,-0000774,+0000476,-0002339,15:00:43.377945
0.365185,+0000019,-0000021,-0000013,+0000026,-0000084,+0004163,-0000774,+0000476,-0002339,15:00:43.377945
0.365518,+0000013,-0000021,-0000002,+0000012,-0000097,+0004150,-0000772,+0000458,-0002318,15:00:43.377945
0.365851,+0000021,-0000032,-0000017,+0000010,-0000085,+0004137,-0000772,+0000458,-0002318,15:00:43.377945
0.366184,+0000013,+0000000,+0000000,-0000001,-0000096,+0004153,-0000772,+0000458,-0002318,15:00:43.377945
0.366517,-0000006,-0000018,-0000011,+0000014,-0000090,+0004127,-0000782,+0000460,-0002328,15:00:43.377945
0.366850,-0000011,-0000010,+0000003,+0000002,-0000089,+0004150,-0000782,+0000460,-0002328,15:00:43.377945
0.367183,+0000033,-0000047,-0000007,+0000021,-0000089,+0004155,-0000782,+0000460,-0002328,15:00:43.377945
0.367516,+0000024,-0000031,-0000013,+0000042,-0000101,+0004154,-0000780,+0000484,-0002315,15:00:43.377945
0.367849,+0000008,-0000019,-0000003,+0000022,-0000095,+0004149,-0000780,+0000484,-0002315,15:00:43.377945
0.368182,+0000011,-0000029,-0000019,+0000022,-0000060,+0004152,-0000780,+0000484,-0002315,15:00:43.377945
0.368515,-0000008,+0000009,+0000001,+0000006,-0000072,+0004145,-0000756,+0000470,-0002326,15:00:43.377945
0.368848,+0000011,-0000024,-0000013,+0000021,-0000093,+0004140,-0000756,+0000470,-0002326,15:00:43.377945
0.369181,+0000027,-0000050,-0000011,+0000028,-0000078,+0004140,-0000756,+0000470,-0002326,15:00:43.377945
0.369514,+0000022,-0000026,-0000008,+0000016,-0000087,+0004154,-0000760,+0000478,-0002348,15:00:43.377945
0.369847,+0000019,-0000027,-0000010,+0000017,-0000069,+0004142,-0000760,+0000478,-0002348,15:00:43.380062
0.370180,-0000003,-0000002,-0000007,+0000021,-0000057,+0004165,-0000760,+0000478,-0002348,15:00:43.380062
0.370513,+0000010,-0000009,-0000011,+0000015,-0000090,+0004141,-0000764,+0000474,-0002340,15:00:43.380062
0.370846,+0000027,-0000036,+0000003,+0000012,-0000076,+0004158,-0000764,+0000474,-0002340,15:00:43.380062
0.371179,+0000025,-0000037,-0000023,+0000051,-0000072,+0004160,-0000764,+0000474,-0002340,15:00:43.380062
0.371512,+0000019,-0000028,+0000000,+0000042,-0000079,+0004160,-0000776,+0000484,-0002345,15:00:43.380062
0.371845,+0000007,-0000026,-0000016,+0000031,-0000081,+0004147,-0000776,+0000484,-0002345,15:00:43.380062
0.372178,+0000013,-0000011,-0000005,+0000013,-0000106,+0004173,-0000776,+0000484,-0002345,15:00:43.380062
0.372511,+0000005,-0000021,-0000003,+0000023,-0000080,+0004156,-0000768,+0000462,-0002333,15:00:43.380062
0.372844,+0000014,-0000027,-0000007,+0000036,-0000093,+0004132,-0000768,+0000462,-0002333,15:00:43.380062
0.373177,+0000022,-0000045,-0000018,+0000021,-0000081,+0004161,-0000768,+0000462,-0002333,15:00:43.380062
0.373510,+0000021,-0000025,-0000024,+0000022,-0000078,+0004162,-0000760,+0000468,-0002293,15:00:43.380062
0.373843,+0000022,-0000010,-0000003,+0000002,-0000081,+0004161,-0000760,+0000468,-0002293,15:00:43.380062
0.374176,+0000010,-0000029,-0000021,+0000011,-0000110,+0004172,-0000760,+0000468,-0002293,15:00:43.380062
0.374509,-0000011,-0000010,-0000003,+0000003,-0000078,+0004164,-0000770,+0000470,-0002327,15:00:43.380062
0.374842,+0000020,-0000018,-0000005,+0000020,-0000090,+0004172,-0000770,+0000470,-0002327,15:00:43.380062
0.375175,+0000025,-0000032,-0000004,+0000035,-0000095,+0004152,-0000770,+0000470,-0002327,15:00:43.380062
0.375508,+0000017,-0000026,-0000019,+0000020,-0000086,+0004167,-0000748,+0000478,-0002333,15:00:43.380062
0.375841,-0000001,-0000021,-0000004,+0000028,-0000087,+0004153,-0000748,+0000478,-0002333,15:00:43.380062
0.376174,+0000022,-0000026,-0000016,+0000025,-0000083,+0004122,-0000748,+0000478,-0002333,15:00:43.380062
0.376507,-0000004,-0000021,-0000002,+0000023,-0000070,+0004146,-0000756,+0000480,-0002305,15:00:43.380062
0.376840,+0000016,-0000021,-0000014,+0000025,-0000091,+0004128,-0000756,+0000480,-0002305,15:00:43.380062
