===BEGIN_METADATA===
"This CSV contains gyroscope, accelerometer, and magnetometer data synced with the test named below."
Test Name: 2026-07-07_145810_01,yyyy-mm-dd_hhmmss_{probe#/nano_id}
Calibrations: (not implemented yet)
===END_METADATA===
===BEGIN_DATA===
Time (sec),Gyro X,Gyro Y,Gyro Z,Accel X,Accel Y,Accel Z,Mag X,Mag Y,Mag Z,Processed_Time
0.000153,+0000008,-0000028,-0000015,+0000054,-0000101,+0004149,-0000630,+0000304,-0002531,14:58:10.573005
0.000484,-0000006,-0000013,+0000003,+0000039,-0000117,+0004138,-0000774,+0000474,-0002321,14:58:10.573005
0.000816,+0000002,-0000015,-0000001,+0000060,-0000102,+0004161,-0000774,+0000474,-0002321,14:58:10.573005
0.001149,+0000021,-0000046,-0000013,+0000043,-0000074,+0004153,-0000774,+0000474,-0002321,14:58:10.573005
0.001482,+0000022,-0000034,-0000018,+0000044,-0000080,+0004160,-0000780,+0000464,-0002324,14:58:10.573005
0.001815,+0000005,-0000010,-0000006,+0000030,-0000084,+0004158,-0000780,+0000464,-0002324,14:58:10.573005
0.002148,+0000015,-0000029,-0000013,+0000040,-0000098,+0004151,-0000780,+0000464,-0002324,14:58:10.573005
0.002481,+0000019,-0000011,-0000005,+0000050,-0000084,+0004174,-0000778,+0000482,-0002335,14:58:10.573005
0.002814,+0000024,-0000027,-0000002,+0000050,-0000083,+0004157,-0000778,+0000482,-0002335,14:58:10.573005
0.003147,+0000016,-0000039,-0000022,+0000040,-0000089,+0004147,-0000778,+0000482,-0002335,14:58:10.573005
0.003480,+0000027,-0000009,-0000008,+0000049,-0000088,+0004154,-0000774,+0000474,-0002326,14:58:10.573005
0.003813,+0000027,-0000016,-0000012,+0000060,-0000087,+0004154,-0000774,+0000474,-0002326,14:58:10.573005
0.004146,+0000002,-0000010,-0000001,+0000049,-0000097,+0004168,-0000774,+0000474,-0002326,14:58:10.573994
0.004479,+0000015,-0000039,-0000013,+0000070,-0000090,+0004157,-0000774,+0000484,-0002312,14:58:10.573994
0.004812,+0000025,-0000024,-0000008,+0000039,-0000080,+0004140,-0000774,+0000484,-0002312,14:58:10.574992
0.005145,+0000033,-0000022,-0000005,+0000063,-0000094,+0004162,-0000774,+0000484,-0002312,14:58:10.574992
0.005478,+0000021,-0000023,-0000013,+0000033,-0000087,+0004161,-0000768,+0000484,-0002331,14:58:10.574992
0.005811,+0000010,-0000008,-0000013,+0000056,-0000093,+0004152,-0000768,+0000484,-0002331,14:58:10.574992
0.006144,+0000005,-0000004,+0000000,+0000028,-0000099,+0004159,-0000768,+0000484,-0002331,14:58:10.574992
0.006477,+0000018,-0000023,-0000012,+0000045,-0000085,+0004160,-0000774,+0000488,-0002343,14:58:10.574992
0.006810,+0000016,-0000029,-0000014,+0000031,-0000091,+0004152,-0000774,+0000488,-0002343,14:58:10.574992
0.007143,+0000018,-0000024,+0000000,+0000050,-0000082,+0004164,-0000774,+0000488,-0002343,14:58:10.574992
0.007476,+0000021,-0000020,-0000013,+0000044,-0000092,+0004147,-0000762,+0000482,-0002316,14:58:10.574992
0.007809,+0000016,-0000018,-0000013,+0000053,-0000071,+0004120,-0000762,+0000482,-0002316,14:58:10.574992
0.008142,+0000010,-0000016,-0000004,+0000053,-0000083,+0004143,-0000762,+0000482,-0002316,14:58:10.574992
0.008475,+0000007,-0000024,-0000012,+0000039,-0000078,+0004165,-0000772,+0000476,-0002326,14:58:10.574992
0.008808,+0000011,-0000035,+0000000,+0000031,-0000089,+0004145,-0000772,+0000476,-0002326,14:58:10.574992
0.009141,+0000024,-0000037,-0000013,+0000039,-0000099,+0004151,-0000772,+0000476,-0002326,14:58:10.574992
0.009474,+0000005,-0000020,-0000005,+0000056,-0000097,+0004145,-0000770,+0000468,-0002316,14:58:10.574992
0.009807,+0000013,-0000024,-0000014,+0000034,-0000082,+0004150,-0000770,+0000468,-0002316,14:58:10.574992
0.010142,+0000006,+0000001,-0000008,+0000044,-0000068,+0004138,-0000770,+0000468,-0002316,14:58:10.574992
0.010477,+0000011,-0000021,-0000006,+0000041,-0000079,+0004155,-0000770,+0000468,-0002339,14:58:10.608841
0.011184,+0000014,-0000037,-0000013,+0000032,-0000097,+0004151,-0000770,+0000468,-0002339,14:58:10.633891
0.011474,+0000010,-0000010,-0000007,+0000032,-0000097,+0004151,-0000770,+0000468,-0002339,14:58:10.639892
0.011805,+0000011,-0000015,-0000002,+0000045,-0000086,+0004163,-0000770,+0000462,-0002322,14:58:10.639892
0.012138,+0000006,-0000008,+0000003,+0000052,-0000102,+0004135,-0000770,+0000462,-0002322,14:58:10.639892
0.012473,+0000017,-0000027,-0000019,+0000042,-0000092,+0004162,-0000770,+0000462,-0002322,14:58:10.639892
0.012805,+0000017,-0000026,+0000003,+0000035,-0000091,+0004138,-0000770,+0000490,-0002323,14:58:10.639892
0.013138,+0000024,-0000044,-0000022,+0000061,-0000098,+0004152,-0000770,+0000490,-0002323,14:58:10.639892
0.013470,+0000016,-0000018,-0000016,+0000045,-0000098,+0004149,-0000770,+0000490,-0002323,14:58:10.639892
0.013805,+0000005,-0000002,-0000016,+0000043,-0000102,+0004141,-0000782,+0000472,-0002337,14:58:10.639892
0.014137,+0000000,-0000013,-0000002,+0000040,-0000096,+0004156,-0000782,+0000472,-0002337,14:58:10.639892
0.014471,+0000024,-0000034,-0000010,+0000041,-0000097,+0004153,-0000782,+0000472,-0002337,14:58:10.639892
0.014804,+0000025,-0000042,-0000013,+0000053,-0000082,+0004148,-0000768,+0000464,-0002336,14:58:10.639892
0.015136,+0000019,-0000031,-0000012,+0000038,-0000097,+0004142,-0000768,+0000464,-0002336,14:58:10.639892
0.015470,+0000010,-0000026,-0000002,+0000040,-0000084,+0004142,-0000768,+0000464,-0002336,14:58:10.639892
0.015801,+0000014,-0000020,-0000008,+0000033,-0000085,+0004146,-0000760,+0000472,-0002301,14:58:10.639892
0.016134,+0000013,-0000016,-0000002,+0000042,-0000100,+0004152,-0000760,+0000472,-0002301,14:58:10.639892
0.016467,+0000022,-0000029,-0000010,+0000036,-0000094,+0004153,-0000760,+0000472,-0002301,14:58:10.639892
0.016800,+0000029,-0000047,-0000005,+0000045,-0000096,+0004130,-0000778,+0000472,-0002305,14:58:10.639892
0.017133,+0000013,-0000026,-0000015,+0000042,-0000085,+0004154,-0000778,+0000472,-0002305,14:58:10.639892
0.017466,-0000008,-0000004,-0000005,+0000050,-0000091,+0004155,-0000778,+0000472,-0002305,14:58:10.639892
0.017799,+0000019,-0000024,-0000020,+0000047,-0000087,+0004170,-0000772,+0000486,-0002318,14:58:10.639892
0.018132,+0000008,-0000013,-0000008,+0000032,-0000097,+0004168,-0000772,+0000486,-0002318,14:58:10.639892
0.018465,+0000020,-0000029,+0000001,+0000062,-0000090,+0004149,-0000772,+0000486,-0002318,14:58:10.639892
0.018798,+0000027,-0000021,-0000002,+0000045,-0000097,+0004141,-0000776,+0000482,-0002341,14:58:10.639892
0.019131,+0000007,-0000010,-0000011,+0000049,-0000091,+0004147,-0000776,+0000482,-0002341,14:58:10.639892
0.019464,+0000008,-0000019,+0000004,+0000048,-0000079,+0004151,-0000776,+0000482,-0002341,14:58:10.639892
0.019797,+0000008,-0000016,-0000016,+0000066,-0000082,+0004163,-0000780,+0000484,-0002330,14:58:10.639892
0.020130,+0000017,-0000023,+0000000,+0000059,-0000076,+0004156,-0000780,+0000484,-0002330,14:58:10.639892
0.020463,+0000022,-0000035,-0000010,+0000044,-0000090,+0004153,-0000780,+0000484,-0002330,14:58:10.639892
0.020796,+0000017,-0000029,-0000010,+0000050,-0000094,+0004137,-0000756,+0000480,-0002320,14:58:10.639892
0.021129,+0000005,-0000018,+0000000,+0000047,-0000085,+0004148,-0000756,+0000480,-0002320,14:58:10.639892
0.021462,+0000013,-0000023,-0000008,+0000035,-0000100,+0004140,-0000756,+0000480,-0002320,14:58:10.639892
0.021797,-0000006,+0000001,-0000018,+0000049,-0000087,+0004157,-0000768,+0000478,-0002324,14:58:10.639892
0.022128,+0000026,-0000026,-0000022,+0000039,-0000078,+0004162,-0000768,+0000478,-0002324,14:58:10.639892
0.022461,+0000006,-0000026,+0000001,+0000055,-0000114,+0004151,-0000768,+0000478,-0002324,14:58:10.639892
0.022794,+0000010,-0000031,-0000013,+0000051,-0000087,+0004166,-0000772,+0000486,-0002311,14:58:10.639892
0.023127,+0000029,-0000038,-0000021,+0000043,-0000081,+0004155,-0000772,+0000486,-0002311,14:58:10.639892
0.023460,-0000006,-0000015,+0000004,+0000049,-0000074,+0004135,-0000772,+0000486,-0002311,14:58:10.639892
0.023795,+0000010,-0000005,-0000018,+0000044,-0000100,+0004145,-0000754,+0000486,-0002321,14:58:10.639892
0.024126,+0000014,-0000018,-0000013,+0000043,-0000081,+0004145,-0000754,+0000486,-0002321,14:58:10.639892
0.024468,+0000022,-0000038,-0000008,+0000064,-0000084,+0004150,-0000754,+0000486,-0002321,14:58:10.639892
0.024928,+0000024,-0000039,-0000002,+0000035,-0000092,+0004142,-0000776,+0000482,-0002318,14:58:10.639892
0.025195,+0000024,-0000039,-0000011,+0000051,-0000067,+0004155,-0000776,+0000482,-0002318,14:58:10.639892
0.025471,+0000018,-0000008,-0000018,+0000033,-0000096,+0004153,-0000776,+0000482,-0002318,14:58:10.639892
0.026033,+0000008,-0000042,-0000019,+0000030,-0000087,+0004155,-0000768,+0000474,-0002329,14:58:10.639892
0.026262,+0000024,-0000042,-0000019,+0000030,-0000087,+0004161,-0000768,+0000474,-0002329,14:58:10.639892
0.026458,-0000001,+0000000,-0000005,+0000033,-0000077,+0004161,-0000768,+0000474,-0002329,14:58:10.639892
0.026790,-0000001,-0000016,+0000001,+0000046,-0000111,+0004156,-0000774,+0000474,-0002336,14:58:10.639892
0.027124,+0000018,-0000030,-0000019,+0000063,-0000110,+0004153,-0000774,+0000474,-0002336,14:58:10.639892
0.027456,+0000000,-0000002,-0000008,+0000038,-0000090,+0004132,-0000774,+0000474,-0002336,14:58:10.639892
0.027789,+0000016,-0000024,-0000013,+0000037,-0000094,+0004166,-0000764,+0000488,-0002330,14:58:10.639892
0.028124,+0000019,-0000039,-0000002,+0000045,-0000100,+0004147,-0000764,+0000488,-0002330,14:58:10.639892
0.028455,+0000011,-0000021,+0000001,+0000055,-0000084,+0004146,-0000764,+0000488,-0002330,14:58:10.639892
0.028788,+0000021,-0000035,-0000016,+0000054,-0000082,+0004166,-0000768,+0000478,-0002321,14:58:10.639892
0.029121,+0000011,-0000008,-0000005,+0000045,-0000110,+0004154,-0000768,+0000478,-0002321,14:58:10.639892
0.029456,+0000006,-0000029,-0000010,+0000042,-0000102,+0004172,-0000768,+0000478,-0002321,14:58:10.639892
0.029789,+0000007,-0000015,-0000002,+0000035,-0000091,+0004155,-0000776,+0000488,-0002327,14:58:10.639892
0.030120,+0000021,-0000038,-0000005,+0000056,-0000083,+0004170,-0000776,+0000488,-0002327,14:58:10.639892
0.030453,+0000016,-0000018,-0000011,+0000031,-0000084,+0004155,-0000776,+0000488,-0002327,14:58:10.639892
0.030786,+0000022,-0000010,-0000011,+0000044,-0000091,+0004150,-0000780,+0000484,-0002317,14:58:10.639892
0.031119,-0000003,-0000013,-0000008,+0000047,-0000087,+0004156,-0000780,+0000484,-0002317,14:58:10.639892
0.031452,+0000014,-0000006,-0000003,+0000045,-0000099,+0004151,-0000780,+0000484,-0002317,14:58:10.639892
0.031785,+0000011,-0000022,-0000008,+0000052,-0000103,+0004158,-0000768,+0000470,-0002312,14:58:10.639892
0.032118,+0000025,-0000038,-0000013,+0000060,-0000097,+0004158,-0000768,+0000470,-0002312,14:58:10.639892
0.032451,+0000014,-0000020,-0000008,+0000070,-0000087,+0004142,-0000768,+0000470,-0002312,14:58:10.639892
0.032784,+0000002,-0000007,-0000002,+0000056,-0000091,+0004123,-0000758,+0000478,-0002312,14:58:10.639892
0.033117,+0000014,-0000022,-0000013,+0000047,-0000091,+0004150,-0000758,+0000478,-0002312,14:58:10.639892
0.033450,-0000001,-0000016,+0000001,+0000064,-0000096,+0004148,-0000758,+0000478,-0002312,14:58:10.639892
0.033783,+0000008,-0000020,-0000010,+0000048,-0000101,+0004157,-0000774,+0000470,-0002317,14:58:10.639892
0.034116,+0000008,-0000034,-0000010,+0000044,-0000090,+0004139,-0000774,+0000470,-0002317,14:58:10.639892
0.034449,+0000027,-0000035,-0000014,+0000053,-0000103,+0004146,-0000774,+0000470,-0002317,14:58:10.639892
0.034782,+0000009,-0000037,-0000016,+0000055,-0000087,+0004139,-0000764,+0000466,-0002340,14:58:10.639892
0.035115,+0000003,-0000018,-0000007,+0000045,-0000094,+0004169,-0000764,+0000466,-0002340,14:58:10.639892
0.035448,+0000005,-0000008,-0000003,+0000049,-0000075,+0004156,-0000764,+0000466,-0002340,14:58:10.639892
0.035781,+0000011,-0000026,-0000010,+0000051,-0000087,+0004150,-0000774,+0000472,-0002326,14:58:10.639892
0.036114,+0000004,-0000053,-0000010,+0000048,-0000098,+0004159,-0000774,+0000472,-0002326,14:58:10.639892
0.036447,+0000014,-0000015,-0000005,+0000044,-0000092,+0004165,-0000774,+0000472,-0002326,14:58:10.641373
0.036780,+0000022,-0000037,-0000016,+0000039,-0000065,+0004153,-0000764,+0000484,-0002308,14:58:10.641373
0.037113,+0000000,-0000004,-0000005,+0000060,-0000082,+0004137,-0000764,+0000484,-0002308,14:58:10.641373
0.037446,+0000008,-0000023,-0000008,+0000046,-0000080,+0004144,-0000764,+0000484,-0002308,14:58:10.641373
0.037779,+0000019,-0000024,-0000004,+0000030,-0000094,+0004151,-0000778,+0000476,-0002322,14:58:10.641373
0.038112,+0000024,-0000028,-0000006,+0000046,-0000101,+0004138,-0000778,+0000476,-0002322,14:58:10.641373
0.038445,+0000011,-0000044,-0000019,+0000051,-0000090,+0004154,-0000778,+0000476,-0002322,14:58:10.641373
0.038778,+0000024,-0000026,-0000006,+0000042,-0000086,+0004143,-0000758,+0000476,-0002325,14:58:10.641373
0.039111,-0000012,-0000004,-0000010,+0000064,-0000083,+0004145,-0000758,+0000476,-0002325,14:58:10.641373
0.039444,-0000001,-0000021,-0000003,+0000066,-0000096,+0004157,-0000758,+0000476,-0002325,14:58:10.641373
0.039777,+0000027,-0000031,-0000014,+0000043,-0000074,+0004145,-0000762,+0000474,-0002329,14:58:10.641373
0.040110,+0000008,-0000031,-0000010,+0000041,-0000085,+0004133,-0000762,+0000474,-0002329,14:58:10.641373
0.040443,+0000028,-0000026,-0000010,+0000061,-0000072,+0004149,-0000762,+0000474,-0002329,14:58:10.641373
0.040776,+0000006,-0000026,-0000008,+0000049,-0000104,+0004144,-0000776,+0000478,-0002322,14:58:10.641373
0.041109,+0000002,-0000005,+0000004,+0000063,-0000083,+0004155,-0000776,+0000478,-0002322,14:58:10.641373
0.041442,+0000029,-0000012,-0000016,+0000042,-0000092,+0004151,-0000776,+0000478,-0002322,14:58:10.641373
0.041775,+0000002,-0000026,+0000000,+0000041,-0000080,+0004157,-0000774,+0000476,-0002312,14:58:10.641373
0.042108,+0000021,-0000034,-0000007,+0000041,-0000069,+0004148,-0000774,+0000476,-0002312,14:58:10.641373
0.042441,+0000033,-0000039,-0000018,+0000055,-0000091,+0004153,-0000774,+0000476,-0002312,14:58:10.641373
0.042774,+0000010,-0000012,-0000005,+0000056,-0000106,+0004171,-0000798,+0000482,-0002318,14:58:10.641373
0.043107,-0000005,-0000029,-0000013,+0000041,-0000085,+0004161,-0000798,+0000482,-0002318,14:58:10.641373
0.043440,+0000019,-0000008,-0000002,+0000046,-0000097,+0004134,-0000798,+0000482,-0002318,14:58:10.641373
0.043773,+0000024,-0000047,-0000021,+0000045,-0000086,+0004168,-0000770,+0000466,-0002332,14:58:10.641373
0.044106,+0000019,-0000051,-0000011,+0000041,-0000091,+0004159,-0000770,+0000466,-0002332,14:58:10.641373
0.044439,+0000030,-0000022,-0000008,+0000047,-0000096,+0004155,-0000770,+0000466,-0002332,14:58:10.641373
0.044772,+0000008,-0000016,-0000010,+0000044,-0000087,+0004124,-0000776,+0000484,-0002326,14:58:10.641373
0.045105,+0000008,-0000026,-0000005,+0000052,-0000087,+0004154,-0000776,+0000484,-0002326,14:58:10.641373
0.045438,+0000002,-0000015,+0000012,+0000074,-0000091,+0004149,-0000776,+0000484,-0002326,14:58:10.641373
0.045771,+0000021,-0000037,-0000018,+0000047,-0000090,+0004147,-0000776,+0000468,-0002315,14:58:10.641373
0.046104,+0000026,-0000026,-0000015,+0000046,-0000078,+0004126,-0000776,+0000468,-0002315,14:58:10.641373
0.046437,+0000010,-0000004,-0000004,+0000032,-0000089,+0004158,-0000776,+0000468,-0002315,14:58:10.641373
0.046770,+0000005,-0000013,-0000008,+0000044,-0000094,+0004161,-0000766,+0000478,-0002320,14:58:10.641373
0.047103,+0000015,-0000011,-0000002,+0000057,-0000104,+0004145,-0000766,+0000478,-0002320,14:58:10.641373
0.047436,+0000006,-0000013,-0000015,+0000046,-0000096,+0004172,-0000766,+0000478,-0002320,14:58:10.641373
0.047771,+0000024,-0000039,+0000000,+0000049,-0000083,+0004150,-0000762,+0000466,-0002308,14:58:10.641373
0.048102,+0000015,-0000019,-0000019,+0000021,-0000076,+0004152,-0000762,+0000466,-0002308,14:58:10.641373
0.048435,+0000002,-0000012,-0000006,+0000062,-0000077,+0004157,-0000762,+0000466,-0002308,14:58:10.641373
0.048768,+0000019,-0000018,-0000011,+0000054,-0000078,+0004144,-0000774,+0000482,-0002332,14:58:10.641373
0.049101,-0000001,-0000008,-0000004,+0000042,-0000083,+0004153,-0000774,+0000482,-0002332,14:58:10.641373
0.049434,+0000010,-0000032,-0000008,+0000044,-0000095,+0004152,-0000774,+0000482,-0002332,14:58:10.641373
0.049767,+0000030,-0000054,-0000018,+0000040,-0000089,+0004152,-0000776,+0000488,-0002334,14:58:10.641373
0.050100,+0000017,-0000020,-0000005,+0000016,-0000087,+0004152,-0000776,+0000488,-0002334,14:58:10.641373
0.050433,+0000016,-0000032,-0000018,+0000041,-0000084,+0004132,-0000776,+0000488,-0002334,14:58:10.641373
0.050766,+0000005,-0000015,-0000010,+0000062,-0000079,+0004162,-0000786,+0000466,-0002341,14:58:10.641373
0.051099,+0000016,-0000018,-0000013,+0000044,-0000088,+0004156,-0000786,+0000466,-0002341,14:58:10.641373
0.051432,+0000005,-0000021,-0000005,+0000074,-0000095,+0004143,-0000786,+0000466,-0002341,14:58:10.641373
0.051765,+0000036,-0000035,-0000010,+0000051,-0000075,+0004158,-0000786,+0000470,-0002325,14:58:10.641373
0.052098,+0000016,-0000031,-0000007,+0000049,-0000077,+0004147,-0000786,+0000470,-0002325,14:58:10.641373
0.052431,+0000005,-0000011,-0000010,+0000034,-0000101,+0004133,-0000786,+0000470,-0002325,14:58:10.641373
0.052764,+0000027,-0000023,-0000018,+0000058,-0000082,+0004143,-0000772,+0000464,-0002329,14:58:10.641373
0.053097,+0000010,-0000007,-0000010,+0000045,-0000071,+0004145,-0000772,+0000464,-0002329,14:58:10.641373
0.053430,+0000019,-0000042,-0000021,+0000062,-0000090,+0004144,-0000772,+0000464,-0002329,14:58:10.641373
0.053763,+0000011,-0000038,+0000003,+0000038,-0000085,+0004151,-0000762,+0000468,-0002324,14:58:10.641373
0.054096,+0000010,-0000034,-0000015,+0000046,-0000084,+0004160,-0000762,+0000468,-0002324,14:58:10.641373
0.054429,+0000015,-0000012,-0000005,+0000055,-0000095,+0004155,-0000762,+0000468,-0002324,14:58:10.641373
0.054762,+0000005,+0000004,-0000001,+0000044,-0000075,+0004148,-0000778,+0000472,-0002342,14:58:10.641373
0.055095,+0000021,-0000021,-0000003,+0000053,-0000082,+0004187,-0000778,+0000472,-0002342,14:58:10.641373
0.055428,+0000015,-0000039,-0000007,+0000039,-0000090,+0004164,-0000778,+0000472,-0002342,14:58:10.641373
0.055761,+0000036,-0000021,-0000019,+0000051,-0000103,+0004159,-0000766,+0000474,-0002340,14:58:10.641373
0.056094,+0000014,-0000032,-0000005,+0000050,-0000105,+0004151,-0000766,+0000474,-0002340,14:58:10.641373
0.056427,+0000014,-0000020,-0000013,+0000034,-0000070,+0004146,-0000766,+0000474,-0002340,14:58:10.641373
0.056760,+0000000,-0000005,-0000008,+0000056,-0000081,+0004135,-0000786,+0000482,-0002304,14:58:10.641373
0.057093,+0000011,-0000028,-0000008,+0000053,-0000089,+0004152,-0000786,+0000482,-0002304,14:58:10.641373
0.057426,+0000024,-0000034,-0000018,+0000066,-0000089,+0004152,-0000786,+0000482,-0002304,14:58:10.641373
0.057759,+0000020,-0000026,-0000005,+0000051,-0000077,+0004140,-0000782,+0000484,-0002314,14:58:10.641373
0.058092,+0000006,-0000021,-0000016,+0000066,-0000088,+0004155,-0000782,+0000484,-0002314,14:58:10.641373
0.058425,-0000006,-0000010,+0000001,+0000062,-0000092,+0004170,-0000782,+0000484,-0002314,14:58:10.641373
0.058758,+0000005,-0000011,-0000019,+0000046,-0000088,+0004169,-0000782,+0000478,-0002318,14:58:10.641373
0.059091,+0000008,-0000012,-0000005,+0000050,-0000068,+0004158,-0000782,+0000478,-0002318,14:58:10.641373
0.059424,+0000018,-0000023,+0000000,+0000042,-0000090,+0004155,-0000782,+0000478,-0002318,14:58:10.641373
0.059757,+0000021,-0000021,-0000003,+0000058,-0000098,+0004151,-0000782,+0000488,-0002293,14:58:10.641373
0.060090,+0000019,-0000029,-0000007,+0000049,-0000079,+0004152,-0000782,+0000488,-0002293,14:58:10.641373
0.060423,-0000009,+0000000,-0000002,+0000040,-0000082,+0004150,-0000782,+0000488,-0002293,14:58:10.641373
0.060756,+0000006,-0000014,-0000005,+0000037,-0000088,+0004172,-0000772,+0000474,-0002318,14:58:10.641373
0.061089,+0000021,-0000029,-0000014,+0000036,-0000090,+0004162,-0000772,+0000474,-0002318,14:58:10.641373
0.061422,+0000018,-0000023,-0000010,+0000050,-0000082,+0004152,-0000772,+0000474,-0002318,14:58:10.641373
0.061755,+0000022,-0000031,-0000011,+0000043,-0000087,+0004161,-0000764,+0000470,-0002312,14:58:10.641373
0.062088,+0000018,-0000016,-0000003,+0000046,-0000089,+0004170,-0000764,+0000470,-0002312,14:58:10.641373
0.062421,+0000010,-0000015,-0000010,+0000050,-0000091,+0004150,-0000764,+0000470,-0002312,14:58:10.641373
0.062754,+0000003,-0000019,-0000016,+0000037,-0000087,+0004160,-0000770,+0000482,-0002307,14:58:10.641373
0.063087,+0000019,-0000019,-0000012,+0000059,-0000083,+0004139,-0000770,+0000482,-0002307,14:58:10.641373
0.063420,+0000016,-0000027,-0000002,+0000059,-0000083,+0004127,-0000770,+0000482,-0002307,14:58:10.641373
0.063753,+0000013,-0000023,-0000005,+0000046,-0000094,+0004165,-0000770,+0000462,-0002321,14:58:10.641373
0.064086,+0000021,-0000039,-0000016,+0000051,-0000096,+0004159,-0000770,+0000462,-0002321,14:58:10.641373
0.064419,+0000013,-0000005,-0000013,+0000043,-0000085,+0004172,-0000770,+0000462,-0002321,14:58:10.641373
0.064752,+0000005,-0000010,+0000001,+0000039,-0000087,+0004151,-0000774,+0000470,-0002294,14:58:10.641373
0.065085,+0000013,-0000016,-0000007,+0000054,-0000092,+0004149,-0000774,+0000470,-0002294,14:58:10.641373
0.065418,+0000022,-0000034,-0000010,+0000072,-0000101,+0004137,-0000774,+0000470,-0002294,14:58:10.641373
0.065751,+0000019,-0000019,-0000005,+0000060,-0000084,+0004148,-0000768,+0000466,-0002300,14:58:10.641373
0.066084,+0000022,-0000019,-0000021,+0000036,-0000093,+0004152,-0000768,+0000466,-0002300,14:58:10.641373
0.066417,+0000006,-0000003,+0000000,+0000046,-0000078,+0004150,-0000768,+0000466,-0002300,14:58:10.641373
0.066750,+0000002,-0000013,-0000016,+0000043,-0000095,+0004162,-0000784,+0000480,-0002312,14:58:10.641373
0.067083,+0000027,-0000026,+0000003,+0000066,-0000087,+0004149,-0000784,+0000480,-0002312,14:58:10.641373
0.067416,+0000033,-0000039,-0000005,+0000063,-0000086,+0004153,-0000784,+0000480,-0002312,14:58:10.641373
0.067749,+0000013,-0000040,-0000016,+0000060,-0000098,+0004151,-0000766,+0000482,-0002333,14:58:10.641373
0.068082,+0000024,-0000018,-0000002,+0000069,-0000085,+0004147,-0000766,+0000482,-0002333,14:58:10.641373
0.068415,+0000017,-0000008,+0000001,+0000052,-0000079,+0004154,-0000766,+0000482,-0002333,14:58:10.641373
0.068748,-0000003,-0000018,-0000011,+0000053,-0000085,+0004140,-0000766,+0000476,-0002297,14:58:10.641373
0.069081,+0000006,-0000029,-0000003,+0000043,-0000094,+0004153,-0000766,+0000476,-0002297,14:58:10.641373
0.069414,+0000031,-0000030,-0000010,+0000039,-0000092,+0004157,-0000766,+0000476,-0002297,14:58:10.641373
0.069747,+0000018,-0000035,-0000013,+0000039,-0000065,+0004127,-0000746,+0000482,-0002340,14:58:10.641373
0.070080,+0000013,-0000015,-0000023,+0000044,-0000088,+0004140,-0000746,+0000482,-0002340,14:58:10.641373
0.070413,+0000010,-0000012,-0000002,+0000045,-0000096,+0004148,-0000746,+0000482,-0002340,14:58:10.641373
0.070746,+0000012,-0000024,-0000018,+0000026,-0000085,+0004156,-0000756,+0000472,-0002352,14:58:10.641373
0.071079,+0000000,-0000024,+0000004,+0000055,-0000073,+0004153,-0000756,+0000472,-0002352,14:58:10.641373
0.071412,+0000030,-0000043,-0000026,+0000052,-0000083,+0004152,-0000756,+0000472,-0002352,14:58:10.641373
0.071745,+0000016,-0000021,-0000018,+0000046,-0000092,+0004156,-0000766,+0000482,-0002340,14:58:10.641373
0.072078,+0000010,-0000005,-0000010,+0000067,-0000080,+0004149,-0000766,+0000482,-0002340,14:58:10.641373
0.072411,-0000001,-0000010,+0000001,+0000043,-0000099,+0004172,-0000766,+0000482,-0002340,14:58:10.641373
0.072744,+0000018,-0000026,-0000008,+0000046,-0000089,+0004157,-0000750,+0000480,-0002315,14:58:10.641373
0.073077,+0000004,-0000021,-0000014,+0000062,-0000101,+0004154,-0000750,+0000480,-0002315,14:58:10.641373
0.073410,+0000022,-0000019,-0000022,+0000032,-0000100,+0004169,-0000750,+0000480,-0002315,14:58:10.641373
0.073743,+0000011,-0000012,-0000004,+0000070,-0000097,+0004151,-0000778,+0000474,-0002335,14:58:10.641373
0.074077,+0000014,-0000023,+0000001,+0000048,-0000097,+0004145,-0000778,+0000474,-0002335,14:58:10.641373
0.074414,+0000013,-0000011,-0000010,+0000059,-0000087,+0004158,-0000778,+0000474,-0002335,14:58:10.641373
0.075105,+0000005,-0000014,-0000013,+0000056,-0000088,+0004164,-0000782,+0000478,-0002331,14:58:10.641373
0.075511,+0000004,-0000008,-0000002,+0000051,-0000075,+0004152,-0000782,+0000478,-0002331,14:58:10.641373
0.075765,+0000015,-0000027,-0000008,+0000048,-0000086,+0004164,-0000782,+0000478,-0002331,14:58:10.641373
0.076078,+0000022,-0000034,-0000008,+0000039,-0000092,+0004154,-0000756,+0000476,-0002337,14:58:10.641373
0.076409,+0000016,-0000035,-0000007,+0000045,-0000079,+0004141,-0000756,+0000476,-0002337,14:58:10.641373
0.076746,+0000017,-0000036,-0000002,+0000055,-0000086,+0004162,-0000756,+0000476,-0002337,14:58:10.641373
0.077184,+0000017,-0000019,-0000018,+0000057,-0000098,+0004150,-0000768,+0000502,-0002318,14:58:10.641373
0.077404,+0000016,-0000039,-0000002,+0000043,-0000064,+0004142,-0000768,+0000502,-0002318,14:58:10.641373
0.077739,+0000003,-0000021,-0000010,+0000060,-0000108,+0004133,-0000768,+0000502,-0002318,14:58:10.641373
0.078072,+0000016,-0000013,-0000013,+0000053,-0000080,+0004134,-0000746,+0000474,-0002349,14:58:10.641373
0.078405,+0000010,-0000016,-0000002,+0000046,-0000091,+0004144,-0000746,+0000474,-0002349,14:58:10.641373
0.078738,+0000003,-0000029,-0000014,+0000033,-0000107,+0004131,-0000746,+0000474,-0002349,14:58:10.641373
0.079071,+0000025,-0000034,-0000003,+0000040,-0000099,+0004135,-0000760,+0000466,-0002324,14:58:10.641373
0.079404,+0000016,-0000021,-0000015,+0000034,-0000087,+0004147,-0000760,+0000466,-0002324,14:58:10.641373
0.079737,+0000010,-0000031,-0000015,+0000048,-0000076,+0004157,-0000760,+0000466,-0002324,14:58:10.641373
0.080070,+0000003,-0000008,-0000007,+0000042,-0000107,+0004145,-0000760,+0000492,-0002339,14:58:10.641373
0.080403,+0000013,+0000000,-0000005,+0000041,-0000102,+0004156,-0000760,+0000492,-0002339,14:58:10.641373
0.080736,+0000018,-0000040,-0000007,+0000066,-0000085,+0004148,-0000760,+0000492,-0002339,14:58:10.641373
0.081069,+0000013,-0000029,-0000013,+0000064,-0000072,+0004141,-0000764,+0000462,-0002344,14:58:10.641373
0.081402,+0000016,-0000037,-0000008,+0000057,-0000094,+0004148,-0000764,+0000462,-0002344,14:58:10.641373
0.081735,+0000016,-0000022,-0000010,+0000042,-0000111,+0004138,-0000764,+0000462,-0002344,14:58:10.641373
0.082068,-0000017,-0000001,+0000003,+0000057,-0000099,+0004132,-0000776,+0000476,-0002313,14:58:10.641373
0.082401,+0000015,-0000012,-0000015,+0000055,-0000072,+0004135,-0000776,+0000476,-0002313,14:58:10.641373
0.082734,+0000013,-0000032,-0000001,+0000056,-0000078,+0004151,-0000776,+0000476,-0002313,14:58:10.641373
0.083067,+0000014,-0000040,-0000015,+0000037,-0000086,+0004155,-0000774,+0000482,-0002331,14:58:10.641373
0.083400,+0000022,-0000039,-0000010,+0000040,-0000097,+0004178,-0000774,+0000482,-0002331,14:58:10.641373
0.083733,+0000011,-0000018,-0000005,+0000054,-0000089,+0004144,-0000774,+0000482,-0002331,14:58:10.641373
0.084066,+0000003,-0000014,-0000003,+0000050,-0000095,+0004151,-0000768,+0000478,-0002331,14:58:10.641373
0.084407,+0000017,-0000039,-0000005,+0000045,-0000084,+0004146,-0000768,+0000478,-0002331,14:58:10.641373
0.084732,+0000019,-0000029,-0000013,+0000061,-0000100,+0004156,-0000768,+0000478,-0002331,14:58:10.641373
0.085065,+0000014,-0000028,-0000007,+0000053,-0000094,+0004147,-0000756,+0000484,-0002321,14:58:10.641373
0.085398,+0000019,-0000012,-0000006,+0000066,-0000077,+0004154,-0000756,+0000484,-0002321,14:58:10.641373
0.085731,+0000010,-0000007,+0000001,+0000053,-0000090,+0004143,-0000756,+0000484,-0002321,14:58:10.641373
0.086064,-0000001,-0000017,-0000004,+0000055,-0000105,+0004158,-0000764,+0000462,-0002322,14:58:10.641373
0.086397,+0000021,-0000029,-0000013,+0000044,-0000082,+0004170,-0000764,+0000462,-0002322,14:58:10.641373
0.086730,+0000013,-0000026,-0000005,+0000036,-0000104,+0004150,-0000764,+0000462,-0002322,14:58:10.641373
0.087063,+0000032,-0000018,-0000007,+0000036,-0000097,+0004169,-0000762,+0000488,-0002305,14:58:10.641373
0.087396,+0000006,-0000016,-0000004,+0000047,-0000097,+0004145,-0000762,+0000488,-0002305,14:58:10.641373
0.087729,+0000008,-0000004,-0000001,+0000046,-0000119,+0004147,-0000762,+0000488,-0002305,14:58:10.641373
0.088062,+0000013,-0000031,-0000020,+0000045,-0000092,+0004138,-0000768,+0000474,-0002343,14:58:10.641373
0.088395,+0000005,-0000004,+0000003,+0000026,-0000072,+0004137,-0000768,+0000474,-0002343,14:58:10.641373
0.088728,+0000017,-0000039,-0000016,+0000062,-0000101,+0004153,-0000768,+0000474,-0002343,14:58:10.641373
0.089061,+0000014,-0000026,-0000005,+0000048,-0000094,+0004145,-0000776,+0000478,-0002343,14:58:10.641373
0.089394,-0000005,-0000021,-0000003,+0000057,-0000073,+0004148,-0000776,+0000478,-0002343,14:58:10.641373
0.089727,+0000014,-0000016,-0000021,+0000049,-0000097,+0004147,-0000776,+0000478,-0002343,14:58:10.641373
0.090060,+0000002,-0000015,+0000003,+0000073,-0000093,+0004171,-0000774,+0000486,-0002315,14:58:10.641373
0.090393,+0000025,-0000021,-0000005,+0000048,-0000102,+0004165,-0000774,+0000486,-0002315,14:58:10.641373
0.090726,+0000030,-0000034,+0000000,+0000058,-0000102,+0004160,-0000774,+0000486,-0002315,14:58:10.641373
0.091059,+0000014,-0000021,-0000013,+0000037,-0000094,+0004143,-0000772,+0000476,-0002326,14:58:10.641373
0.091392,+0000018,-0000024,-0000014,+0000043,-0000091,+0004146,-0000772,+0000476,-0002326,14:58:10.641373
0.091725,-0000006,-0000010,-0000015,+0000029,-0000091,+0004143,-0000772,+0000476,-0002326,14:58:10.641373
0.092058,+0000017,-0000031,-0000011,+0000064,-0000085,+0004152,-0000772,+0000474,-0002313,14:58:10.641373
0.092391,+0000004,-0000019,-0000011,+0000048,-0000081,+0004169,-0000772,+0000474,-0002313,14:58:10.641373
0.092724,+0000018,-0000037,-0000014,+0000058,-0000084,+0004160,-0000772,+0000474,-0002313,14:58:10.641373
0.093057,+0000024,-0000024,-0000012,+0000046,-0000091,+0004150,-0000782,+0000474,-0002304,14:58:10.641373
0.093390,+0000014,-0000021,-0000016,+0000048,-0000104,+0004144,-0000782,+0000474,-0002304,14:58:10.641373
0.093723,+0000004,-0000023,-0000005,+0000041,-0000086,+0004143,-0000782,+0000474,-0002304,14:58:10.641373
0.094056,+0000004,-0000002,+0000009,+0000041,-0000092,+0004154,-0000772,+0000474,-0002304,14:58:10.641373
0.094389,+0000027,-0000039,-0000023,+0000044,-0000112,+0004153,-0000772,+0000474,-0002304,14:58:10.641373
0.094722,+0000021,-0000039,-0000004,+0000063,-0000079,+0004142,-0000772,+0000474,-0002304,14:58:10.641373
0.095055,+0000011,-0000035,-0000002,+0000053,-0000063,+0004134,-0000768,+0000478,-0002318,14:58:10.641373
0.095388,+0000014,-0000029,-0000016,+0000038,-0000093,+0004163,-0000768,+0000478,-0002318,14:58:10.641373
0.095721,+0000018,-0000008,-0000006,+0000027,-0000068,+0004149,-0000768,+0000478,-0002318,14:58:10.641373
0.096054,+0000000,-0000010,+0000012,+0000055,-0000092,+0004161,-0000784,+0000464,-0002311,14:58:10.641373
0.096387,+0000017,-0000040,-0000019,+0000041,-0000091,+0004157,-0000784,+0000464,-0002311,14:58:10.641373
0.096720,+0000024,-0000027,-0000003,+0000047,-0000093,+0004150,-0000784,+0000464,-0002311,14:58:10.641373
0.097053,+0000027,-0000029,-0000016,+0000051,-0000088,+0004159,-0000762,+0000446,-0002329,14:58:10.641373
0.097386,+0000000,-0000007,+0000006,+0000050,-0000091,+0004145,-0000762,+0000446,-0002329,14:58:10.641373
0.097719,+0000007,-0000020,-0000013,+0000034,-0000105,+0004155,-0000762,+0000446,-0002329,14:58:10.641373
0.098140,+0000011,-0000012,+0000000,+0000045,-0000078,+0004138,-0000758,+0000466,-0002315,14:58:10.641373
0.098390,+0000028,-0000035,-0000023,+0000053,-0000086,+0004138,-0000758,+0000466,-0002315,14:58:10.641373
0.098718,+0000019,-0000034,+0000001,+0000059,-0000104,+0004139,-0000758,+0000466,-0002315,14:58:10.641373
0.099051,+0000017,-0000013,-0000008,+0000037,-0000068,+0004143,-0000756,+0000466,-0002348,14:58:10.641373
0.099384,+0000005,-0000013,-0000015,+0000045,-0000074,+0004147,-0000756,+0000466,-0002348,14:58:10.641373
0.099989,+0000005,-0000016,+0000006,+0000044,-0000096,+0004136,-0000756,+0000466,-0002348,14:58:10.641373
0.100189,+0000013,-0000018,-0000016,+0000058,-0000102,+0004164,-0000778,+0000480,-0002318,14:58:10.641373
0.100420,+0000013,-0000018,-0000005,+0000041,-0000106,+0004143,-0000778,+0000480,-0002318,14:58:10.641373
0.100719,+0000011,-0000032,-0000019,+0000046,-0000132,+0004150,-0000778,+0000480,-0002318,14:58:10.641373
0.101050,+0000019,-0000015,+0000001,+0000039,-0000090,+0004131,-0000772,+0000456,-0002310,14:58:10.641373
0.101382,+0000005,-0000013,-0000011,+0000042,-0000098,+0004151,-0000772,+0000456,-0002310,14:58:10.641373
0.101715,-0000013,+0000000,-0000008,+0000036,-0000079,+0004155,-0000772,+0000456,-0002310,14:58:10.641373
0.102049,+0000012,-0000022,-0000007,+0000050,-0000087,+0004152,-0000770,+0000476,-0002311,14:58:10.641373
0.102382,+0000031,-0000032,-0000006,+0000048,-0000096,+0004156,-0000770,+0000476,-0002311,14:58:10.641373
0.102715,+0000027,-0000024,-0000013,+0000058,-0000088,+0004154,-0000770,+0000476,-0002311,14:58:10.641373
0.103047,+0000016,-0000027,-0000016,+0000057,-0000080,+0004136,-0000776,+0000494,-0002317,14:58:10.641373
0.103381,+0000005,-0000023,-0000007,+0000052,-0000095,+0004152,-0000776,+0000494,-0002317,14:58:10.641373
0.103714,+0000005,+0000003,+0000003,+0000038,-0000111,+0004149,-0000776,+0000494,-0002317,14:58:10.641373
0.104050,+0000003,-0000010,-0000002,+0000054,-0000101,+0004146,-0000770,+0000472,-0002319,14:58:10.641373
0.104379,-0000004,-0000013,-0000005,+0000035,-0000094,+0004158,-0000770,+0000472,-0002319,14:58:10.641373
0.104712,+0000011,-0000023,-0000011,+0000050,-0000097,+0004162,-0000770,+0000472,-0002319,14:58:10.641373
0.105045,+0000016,-0000028,-0000021,+0000029,-0000098,+0004168,-0000776,+0000486,-0002304,14:58:10.641373
0.105378,+0000001,-0000011,-0000006,+0000041,-0000083,+0004152,-0000776,+0000486,-0002304,14:58:10.641373
0.105711,+0000010,-0000013,-0000005,+0000046,-0000101,+0004153,-0000776,+0000486,-0002304,14:58:10.641373
0.106044,+0000018,-0000029,+0000004,+0000044,-0000114,+0004166,-0000772,+0000482,-0002339,14:58:10.641373
0.106377,+0000016,-0000021,-0000013,+0000034,-0000103,+0004146,-0000772,+0000482,-0002339,14:58:10.641373
0.106710,+0000022,-0000046,-0000013,+0000039,-0000103,+0004147,-0000772,+0000482,-0002339,14:58:10.641373
0.107043,+0000014,-0000005,+0000000,+0000032,-0000089,+0004172,-0000776,+0000460,-0002323,14:58:10.641373
0.107376,+0000005,-0000029,-0000021,+0000065,-0000087,+0004144,-0000776,+0000460,-0002323,14:58:10.641373
0.107709,-0000005,-0000009,+0000001,+0000061,-0000092,+0004139,-0000776,+0000460,-0002323,14:58:10.641373
0.108042,+0000021,-0000018,-0000013,+0000048,-0000076,+0004147,-0000774,+0000474,-0002300,14:58:10.641373
0.108375,+0000010,-0000037,-0000010,+0000044,-0000077,+0004165,-0000774,+0000474,-0002300,14:58:10.641373
0.108708,+0000029,-0000038,-0000021,+0000032,-0000103,+0004170,-0000774,+0000474,-0002300,14:58:10.641373
0.109041,+0000017,-0000013,-0000005,+0000047,-0000098,+0004156,-0000780,+0000458,-0002282,14:58:10.641373
0.109374,+0000007,+0000004,-0000008,+0000052,-0000091,+0004151,-0000780,+0000458,-0002282,14:58:10.641373
0.109707,+0000016,-0000010,-0000014,+0000048,-0000093,+0004153,-0000780,+0000458,-0002282,14:58:10.641373
0.110040,+0000029,-0000029,-0000010,+0000065,-0000087,+0004141,-0000786,+0000460,-0002307,14:58:10.641373
0.110373,+0000011,-0000037,-0000008,+0000065,-0000072,+0004157,-0000786,+0000460,-0002307,14:58:10.641373
0.110706,+0000025,-0000029,-0000016,+0000053,-0000098,+0004148,-0000786,+0000460,-0002307,14:58:10.641373
0.111039,+0000014,-0000023,-0000014,+0000029,-0000074,+0004139,-0000776,+0000484,-0002317,14:58:10.641373
0.111372,+0000011,-0000013,+0000000,+0000065,-0000099,+0004145,-0000776,+0000484,-0002317,14:58:10.641373
0.111705,+0000000,-0000024,-0000008,+0000046,-0000105,+0004131,-0000776,+0000484,-0002317,14:58:10.641373
0.112038,+0000015,-0000026,-0000011,+0000062,-0000093,+0004142,-0000750,+0000478,-0002325,14:58:10.641373
0.112371,+0000024,-0000044,-0000010,+0000052,-0000098,+0004127,-0000750,+0000478,-0002325,14:58:10.641373
0.112704,+0000014,-0000008,+0000004,+0000037,-0000084,+0004141,-0000750,+0000478,-0002325,14:58:10.641373
0.113037,+0000010,-0000019,-0000011,+0000052,-0000080,+0004153,-0000768,+0000466,-0002304,14:58:10.641373
0.113370,+0000007,-0000010,-0000008,+0000046,-0000106,+0004152,-0000768,+0000466,-0002304,14:58:10.641373
0.113703,+0000005,-0000018,-0000004,+0000052,-0000096,+0004125,-0000768,+0000466,-0002304,14:58:10.641373
0.114036,+0000017,-0000020,-0000015,+0000070,-0000089,+0004152,-0000788,+0000490,-0002319,14:58:10.641373
0.114369,+0000028,-0000006,-0000013,+0000042,-0000089,+0004147,-0000788,+0000490,-0002319,14:58:10.641373
0.114702,+0000027,-0000026,-0000008,+0000050,-0000075,+0004144,-0000788,+0000490,-0002319,14:58:10.641373
0.115035,+0000016,-0000019,-0000013,+0000032,-0000070,+0004173,-0000776,+0000464,-0002330,14:58:10.641373
0.115368,+0000011,-0000016,-0000005,+0000039,-0000101,+0004137,-0000776,+0000464,-0002330,14:58:10.641373
0.115701,+0000002,-0000023,+0000001,+0000056,-0000090,+0004159,-0000776,+0000464,-0002330,14:58:10.641373
0.116034,+0000022,-0000029,-0000008,+0000043,-0000104,+0004151,-0000786,+0000494,-0002347,14:58:10.641373
0.116367,+0000016,-0000023,-0000004,+0000032,-0000098,+0004168,-0000786,+0000494,-0002347,14:58:10.641373
0.116700,+0000021,-0000027,-0000022,+0000049,-0000099,+0004146,-0000786,+0000494,-0002347,14:58:10.641373
0.117033,+0000021,-0000012,-0000006,+0000042,-0000079,+0004141,-0000774,+0000486,-0002321,14:58:10.641373
0.117366,-0000001,-0000012,-0000004,+0000046,-0000069,+0004162,-0000774,+0000486,-0002321,14:58:10.652378
0.117699,+0000016,-0000021,-0000008,+0000052,-0000100,+0004155,-0000774,+0000486,-0002321,14:58:10.652378
0.118032,+0000016,-0000027,-0000008,+0000047,-0000094,+0004153,-0000786,+0000486,-0002336,14:58:10.652378
0.118365,+0000019,-0000029,-0000013,+0000048,-0000117,+0004154,-0000786,+0000486,-0002336,14:58:10.652378
0.118698,+0000016,-0000034,-0000018,+0000057,-0000093,+0004168,-0000786,+0000486,-0002336,14:58:10.652378
0.119031,+0000004,+0000000,-0000002,+0000051,-0000085,+0004162,-0000774,+0000464,-0002313,14:58:10.652378
0.119364,+0000000,-0000021,-0000016,+0000043,-0000093,+0004148,-0000774,+0000464,-0002313,14:58:10.652378
0.119697,+0000017,-0000024,-0000011,+0000025,-0000087,+0004147,-0000774,+0000464,-0002313,14:58:10.652378
0.120030,+0000016,-0000037,-0000011,+0000017,-0000093,+0004152,-0000772,+0000468,-0002314,14:58:10.652378
0.120363,+0000017,-0000027,-0000013,+0000030,-0000084,+0004145,-0000772,+0000468,-0002314,14:58:10.652378
0.120696,+0000016,-0000017,-0000011,+0000050,-0000077,+0004151,-0000772,+0000468,-0002314,14:58:10.652378
0.121029,-0000001,-0000018,-0000013,+0000053,-0000086,+0004145,-0000776,+0000456,-0002299,14:58:10.652378
0.121362,+0000008,-0000010,-0000007,+0000046,-0000085,+0004160,-0000776,+0000456,-0002299,14:58:10.652378
0.121695,+0000021,-0000039,+0000000,+0000054,-0000096,+0004142,-0000776,+0000456,-0002299,14:58:10.652378
0.122028,+0000030,-0000039,-0000010,+0000024,-0000103,+0004159,-0000524,+0000482,-0002326,14:58:10.652378
0.122361,+0000008,-0000037,-0000003,+0000025,-0000078,+0004159,-0000524,+0000482,-0002326,14:58:10.652378
0.122694,+0000014,-0000020,-0000013,+0000028,-0000086,+0004169,-0000524,+0000482,-0002326,14:58:10.652378
0.123027,+0000006,-0000010,-0000005,+0000046,-0000084,+0004155,-0000776,+0000484,-0002312,14:58:10.652378
0.123360,+0000008,-0000018,-0000007,+0000046,-0000095,+0004168,-0000776,+0000484,-0002312,14:58:10.652378
0.123694,+0000020,-0000026,+0000000,+0000045,-0000065,+0004154,-0000776,+0000484,-0002312,14:58:11.055275
0.124055,+0000011,-0000034,-0000012,+0000063,-0000081,+0004150,-0000770,+0000470,-0002307,14:58:11.055275
0.124361,+0000029,-0000042,-0000008,+0000040,-0000099,+0004140,-0000770,+0000470,-0002307,14:58:11.055275
0.124700,+0000016,-0000029,-0000008,+0000044,-0000088,+0004148,-0000770,+0000470,-0002307,14:58:11.055275
0.125148,+0000010,-0000016,-0000011,+0000051,-0000082,+0004156,-0000784,+0000486,-0002342,14:58:11.055275
0.125554,+0000022,-0000032,-0000018,+0000051,-0000085,+0004147,-0000784,+0000486,-0002342,14:58:11.055275
0.125761,+0000022,-0000032,-0000018,+0000054,-0000106,+0004135,-0000784,+0000486,-0002342,14:58:11.055275
0.126155,+0000016,-0000023,+0000001,+0000056,-0000100,+0004137,-0000786,+0000466,-0002307,14:58:11.056276
0.126408,+0000023,-0000035,-0000024,+0000070,-0000085,+0004156,-0000786,+0000466,-0002307,14:58:11.056276
0.126691,+0000014,-0000016,+0000011,+0000065,-0000113,+0004136,-0000786,+0000466,-0002307,14:58:11.056276
0.127030,+0000007,-0000013,-0000010,+0000045,-0000081,+0004144,-0000772,+0000486,-0002288,14:58:11.056276
0.127356,+0000014,-0000018,-0000008,+0000028,-0000087,+0004172,-0000772,+0000486,-0002288,14:58:11.056276
0.127689,+0000028,-0000027,-0000021,+0000045,-0000089,+0004148,-0000772,+0000486,-0002288,14:58:11.056276
0.128036,+0000021,-0000015,-0000010,+0000047,-0000078,+0004145,-0000774,+0000488,-0002286,14:58:11.056276
0.128547,+0000005,-0000024,-0000007,+0000049,-0000108,+0004136,-0000774,+0000488,-0002286,14:58:11.056276
0.128708,+0000016,-0000038,-0000011,+0000049,-0000108,+0004136,-0000774,+0000488,-0002286,14:58:11.056276
0.129025,+0000005,-0000010,-0000004,+0000042,-0000093,+0004146,-0000778,+0000470,-0002307,14:58:11.056276
0.129451,+0000013,-0000024,-0000016,+0000016,-0000043,+0004170,-0000778,+0000470,-0002307,14:58:11.056276
0.129689,+0000013,+0000008,+0000002,+0000043,-0000072,+0004144,-0000778,+0000470,-0002307,14:58:11.056276
0.130020,+0000005,-0000029,-0000014,+0000038,-0000089,+0004150,-0000774,+0000470,-0002321,14:58:11.056276
0.130356,+0000019,-0000023,-0000011,+0000042,-0000095,+0004146,-0000774,+0000470,-0002321,14:58:11.056276
0.130687,-0000009,-0000015,-0000013,+0000039,-0000098,+0004153,-0000774,+0000470,-0002321,14:58:11.056276
0.131019,+0000016,-0000007,-0000004,+0000040,-0000098,+0004147,-0000780,+0000474,-0002301,14:58:11.056276
0.131356,+0000005,-0000013,+0000000,+0000053,-0000082,+0004142,-0000780,+0000474,-0002301,14:58:11.056276
0.131685,+0000009,-0000021,-0000010,+0000054,-0000078,+0004133,-0000780,+0000474,-0002301,14:58:11.056276
0.132019,+0000018,-0000036,-0000008,+0000038,-0000097,+0004142,-0000786,+0000484,-0002303,14:58:11.056276
0.132356,+0000019,-0000023,-0000008,+0000019,-0000090,+0004129,-0000786,+0000484,-0002303,14:58:11.056276
0.132684,+0000008,-0000023,-0000013,+0000034,-0000102,+0004163,-0000786,+0000484,-0002303,14:58:11.056276
0.133019,+0000008,-0000025,-0000003,+0000039,-0000082,+0004151,-0000770,+0000490,-0002303,14:58:11.056276
0.133351,+0000030,-0000031,-0000018,+0000055,-0000081,+0004148,-0000770,+0000490,-0002303,14:58:11.056276
0.133683,+0000039,-0000034,+0000001,+0000061,-0000083,+0004160,-0000770,+0000490,-0002303,14:58:11.056276
0.134016,+0000007,-0000029,-0000026,+0000054,-0000078,+0004166,-0000772,+0000470,-0002272,14:58:11.056276
0.134351,+0000016,-0000024,+0000000,+0000057,-0000089,+0004176,-0000772,+0000470,-0002272,14:58:11.056276
0.134682,+0000014,-0000016,-0000013,+0000069,-0000074,+0004151,-0000772,+0000470,-0002272,14:58:11.056276
0.135015,+0000011,-0000006,-0000004,+0000051,-0000087,+0004153,-0000776,+0000488,-0002298,14:58:11.056276
0.135351,+0000013,-0000040,-0000005,+0000049,-0000090,+0004148,-0000776,+0000488,-0002298,14:58:11.056276
0.135681,+0000019,-0000024,-0000008,+0000058,-0000087,+0004151,-0000776,+0000488,-0002298,14:58:11.056276
0.136014,+0000024,-0000032,-0000021,+0000048,-0000095,+0004149,-0000764,+0000468,-0002310,14:58:11.056276
0.136352,+0000008,-0000027,+0000003,+0000049,-0000082,+0004156,-0000764,+0000468,-0002310,14:58:11.056276
0.136680,+0000019,-0000010,-0000003,+0000037,-0000098,+0004146,-0000764,+0000468,-0002310,14:58:11.056276
0.137013,+0000000,-0000018,-0000002,+0000052,-0000083,+0004139,-0000780,+0000470,-0002327,14:58:11.056276
0.137351,+0000024,-0000042,-0000014,+0000043,-0000082,+0004147,-0000780,+0000470,-0002327,14:58:11.056276
0.137679,+0000027,-0000029,-0000010,+0000038,-0000088,+0004161,-0000780,+0000470,-0002327,14:58:11.056276
0.138012,+0000010,-0000034,-0000003,+0000061,-0000093,+0004145,-0000778,+0000480,-0002313,14:58:11.056276
0.138350,+0000006,-0000003,-0000005,+0000038,-0000095,+0004135,-0000778,+0000480,-0002313,14:58:11.056276
0.138678,+0000020,-0000021,+0000003,+0000074,-0000085,+0004153,-0000778,+0000480,-0002313,14:58:11.056276
0.139011,+0000011,-0000024,-0000005,+0000067,-0000088,+0004136,-0000786,+0000474,-0002323,14:58:11.056276
0.139349,+0000019,-0000024,-0000015,+0000047,-0000112,+0004142,-0000786,+0000474,-0002323,14:58:11.056276
0.139677,+0000016,-0000055,-0000007,+0000049,-0000068,+0004148,-0000786,+0000474,-0002323,14:58:11.056276
0.140010,+0000027,-0000018,-0000011,+0000046,-0000085,+0004171,-0000788,+0000486,-0002316,14:58:11.056276
0.140348,+0000019,-0000003,-0000008,+0000068,-0000086,+0004142,-0000788,+0000486,-0002316,14:58:11.056276
0.140676,+0000009,-0000021,-0000004,+0000044,-0000075,+0004139,-0000788,+0000486,-0002316,14:58:11.056276
0.141009,+0000012,-0000018,-0000018,+0000035,-0000085,+0004156,-0000798,+0000482,-0002300,14:58:11.056276
0.141347,+0000029,-0000034,-0000005,+0000064,-0000070,+0004144,-0000798,+0000482,-0002300,14:58:11.056276
0.141675,+0000022,-0000021,-0000015,+0000040,-0000082,+0004157,-0000798,+0000482,-0002300,14:58:11.056276
0.142008,+0000019,-0000018,-0000002,+0000049,-0000091,+0004147,-0000780,+0000478,-0002325,14:58:11.056276
0.142344,-0000003,-0000008,-0000007,+0000036,-0000094,+0004154,-0000780,+0000478,-0002325,14:58:11.056276
0.142674,+0000011,-0000008,-0000008,+0000057,-0000097,+0004144,-0000780,+0000478,-0002325,14:58:11.056276
0.143007,+0000010,-0000026,-0000005,+0000048,-0000095,+0004171,-0000764,+0000466,-0002333,14:58:11.056276
0.143344,+0000025,-0000037,-0000008,+0000048,-0000110,+0004145,-0000764,+0000466,-0002333,14:58:11.056276
0.143673,+0000013,-0000037,-0000019,+0000050,-0000093,+0004148,-0000764,+0000466,-0002333,14:58:11.056276
0.144006,+0000007,-0000013,-0000002,+0000059,-0000068,+0004124,-0000776,+0000470,-0002289,14:58:11.056276
0.144343,-0000001,-0000019,-0000002,+0000043,-0000090,+0004135,-0000776,+0000470,-0002289,14:58:11.056276
0.144672,+0000017,-0000012,-0000019,+0000033,-0000072,+0004136,-0000776,+0000470,-0002289,14:58:11.056276
0.145005,+0000007,-0000023,-0000018,+0000038,-0000076,+0004139,-0000776,+0000470,-0002328,14:58:11.056276
0.145343,+0000019,-0000029,+0000003,+0000033,-0000079,+0004135,-0000776,+0000470,-0002328,14:58:11.056276
0.145671,+0000020,-0000035,-0000016,+0000043,-0000076,+0004150,-0000776,+0000470,-0002328,14:58:11.056276
0.146004,+0000011,-0000016,-0000007,+0000063,-0000092,+0004156,-0000772,+0000466,-0002294,14:58:11.056276
0.146341,+0000008,-0000011,-0000003,+0000035,-0000089,+0004161,-0000772,+0000466,-0002294,14:58:11.056276
0.146670,+0000007,-0000010,-0000010,+0000067,-0000109,+0004154,-0000772,+0000466,-0002294,14:58:11.057283
0.147003,+0000002,-0000008,+0000009,+0000038,-0000079,+0004152,-0000788,+0000474,-0002323,14:58:11.057283
0.147340,+0000022,-0000047,-0000013,+0000021,-0000071,+0004145,-0000788,+0000474,-0002323,14:58:11.057283
0.147669,+0000033,-0000042,-0000010,+0000068,-0000093,+0004163,-0000788,+0000474,-0002323,14:58:11.057283
0.148002,+0000005,-0000014,-0000007,+0000041,-0000085,+0004157,-0000782,+0000466,-0002316,14:58:11.057283
0.148335,+0000011,-0000026,-0000012,+0000067,-0000090,+0004160,-0000782,+0000466,-0002316,14:58:11.057283
0.148668,+0000010,-0000024,+0000008,+0000043,-0000073,+0004156,-0000782,+0000466,-0002316,14:58:11.057283
0.149001,+0000009,-0000031,-0000003,+0000045,-0000095,+0004145,-0000780,+0000478,-0002316,14:58:11.057283
0.149335,+0000022,-0000039,-0000008,+0000053,-0000096,+0004165,-0000780,+0000478,-0002316,14:58:11.057283
0.149667,+0000026,-0000031,-0000015,+0000044,-0000101,+0004149,-0000780,+0000478,-0002316,14:58:11.057283
0.150015,+0000013,-0000018,-0000004,+0000054,-0000086,+0004149,-0000788,+0000476,-0002306,14:58:11.057283
0.150335,+0000013,-0000016,-0000008,+0000060,-0000078,+0004148,-0000788,+0000476,-0002306,14:58:11.057283
0.150666,+0000022,-0000043,-0000011,+0000046,-0000087,+0004144,-0000788,+0000476,-0002306,14:58:11.057283
0.150999,+0000015,-0000022,-0000004,+0000057,-0000097,+0004150,-0000776,+0000474,-0002311,14:58:11.057283
0.151336,+0000027,-0000055,-0000015,+0000036,-0000098,+0004158,-0000776,+0000474,-0002311,14:58:11.057283
0.151665,+0000014,-0000026,-0000003,+0000056,-0000108,+0004141,-0000776,+0000474,-0002311,14:58:11.057283
0.151998,+0000007,-0000015,-0000010,+0000033,-0000106,+0004154,-0000794,+0000474,-0002328,14:58:11.057283
0.152335,+0000019,-0000016,-0000002,+0000056,-0000089,+0004137,-0000794,+0000474,-0002328,14:58:11.057283
0.152664,+0000013,-0000016,-0000008,+0000034,-0000084,+0004140,-0000794,+0000474,-0002328,14:58:11.057283
0.152997,+0000030,-0000042,-0000008,+0000051,-0000077,+0004160,-0000784,+0000478,-0002321,14:58:11.057283
0.153334,+0000016,-0000044,-0000015,+0000055,-0000079,+0004165,-0000784,+0000478,-0002321,14:58:11.057283
0.153663,+0000027,-0000023,-0000008,+0000056,-0000093,+0004167,-0000784,+0000478,-0002321,14:58:11.057283
0.153996,+0000008,-0000017,-0000008,+0000046,-0000079,+0004150,-0000782,+0000474,-0002314,14:58:11.057283
0.154342,-0000003,-0000010,+0000003,+0000034,-0000081,+0004139,-0000782,+0000474,-0002314,14:58:11.057283
0.154662,+0000019,-0000037,-0000016,+0000031,-0000077,+0004155,-0000782,+0000474,-0002314,14:58:11.057283
0.154995,+0000013,-0000037,-0000003,+0000052,-0000081,+0004173,-0000784,+0000470,-0002335,14:58:11.057283
0.155341,+0000014,-0000020,-0000007,+0000057,-0000066,+0004148,-0000784,+0000470,-0002335,14:58:11.057283
0.155661,+0000007,+0000000,-0000003,+0000053,-0000081,+0004138,-0000784,+0000470,-0002335,14:58:11.057283
0.155994,+0000017,-0000021,-0000003,+0000049,-0000084,+0004140,-0000790,+0000476,-0002323,14:58:11.057283
0.156340,+0000002,-0000005,+0000001,+0000032,-0000067,+0004137,-0000790,+0000476,-0002323,14:58:11.057283
0.156660,+0000009,-0000021,-0000002,+0000032,-0000089,+0004144,-0000790,+0000476,-0002323,14:58:11.057283
0.156993,+0000030,-0000050,-0000008,+0000061,-0000111,+0004164,-0000794,+0000474,-0002319,14:58:11.057283
0.157339,+0000022,-0000021,-0000007,+0000048,-0000104,+0004153,-0000794,+0000474,-0002319,14:58:11.057283
0.157659,+0000022,-0000032,-0000016,+0000050,-0000082,+0004155,-0000794,+0000474,-0002319,14:58:11.057283
0.157992,+0000000,-0000011,-0000007,+0000039,-0000081,+0004148,-0000780,+0000460,-0002314,14:58:11.057283
0.158337,+0000009,-0000018,-0000003,+0000041,-0000090,+0004152,-0000780,+0000460,-0002314,14:58:11.057283
0.158658,+0000002,-0000023,-0000013,+0000053,-0000078,+0004138,-0000780,+0000460,-0002314,14:58:11.057283
0.158991,+0000011,-0000034,-0000002,+0000015,-0000068,+0004141,-0000772,+0000474,-0002322,14:58:11.057283
0.159324,+0000022,-0000035,-0000016,+0000045,-0000084,+0004155,-0000772,+0000474,-0002322,14:58:11.057283
0.159657,+0000011,-0000026,-0000013,+0000051,-0000075,+0004162,-0000772,+0000474,-0002322,14:58:11.057283
0.159990,+0000005,-0000008,+0000000,+0000046,-0000092,+0004140,-0000778,+0000468,-0002292,14:58:11.057283
0.160323,+0000017,-0000015,-0000006,+0000051,-0000084,+0004153,-0000778,+0000468,-0002292,14:58:11.057283
0.160656,+0000009,-0000016,+0000000,+0000041,-0000086,+0004154,-0000778,+0000468,-0002292,14:58:11.057283
0.160989,+0000019,-0000036,-0000002,+0000062,-0000076,+0004131,-0000784,+0000474,-0002312,14:58:11.057283
0.161322,+0000014,-0000029,-0000004,+0000053,-0000083,+0004123,-0000784,+0000474,-0002312,14:58:11.057283
0.161655,+0000016,-0000026,-0000024,+0000035,-0000098,+0004154,-0000784,+0000474,-0002312,14:58:11.057283
0.161988,+0000005,-0000017,+0000004,+0000034,-0000085,+0004164,-0000778,+0000466,-0002308,14:58:11.057283
0.162321,+0000010,-0000007,+0000000,+0000047,-0000089,+0004136,-0000778,+0000466,-0002308,14:58:11.057283
0.162654,+0000014,-0000024,-0000013,+0000030,-0000096,+0004146,-0000778,+0000466,-0002308,14:58:11.057283
0.162987,+0000022,-0000035,-0000004,+0000047,-0000080,+0004155,-0000784,+0000484,-0002324,14:58:11.057283
0.163320,+0000022,-0000045,-0000019,+0000050,-0000092,+0004145,-0000784,+0000484,-0002324,14:58:11.057283
0.163653,+0000007,-0000015,-0000006,+0000039,-0000101,+0004141,-0000784,+0000484,-0002324,14:58:11.057283
0.163986,-0000006,-0000002,+0000014,+0000051,-0000090,+0004147,-0000782,+0000484,-0002340,14:58:11.057283
0.164319,+0000008,-0000026,-0000016,+0000044,-0000070,+0004149,-0000782,+0000484,-0002340,14:58:11.057283
0.164652,+0000015,-0000029,-0000002,+0000044,-0000086,+0004147,-0000782,+0000484,-0002340,14:58:11.057283
0.164985,+0000027,-0000039,-0000014,+0000054,-0000090,+0004148,-0000780,+0000474,-0002303,14:58:11.057283
0.165318,+0000022,-0000035,-0000010,+0000046,-0000081,+0004159,-0000780,+0000474,-0002303,14:58:11.057283
0.165651,+0000002,-0000015,-0000008,+0000032,-0000076,+0004173,-0000780,+0000474,-0002303,14:58:11.057283
0.165984,+0000016,-0000021,-0000010,+0000051,-0000105,+0004156,-0000780,+0000466,-0002318,14:58:11.057283
0.166317,+0000003,-0000027,-0000005,+0000058,-0000089,+0004140,-0000780,+0000466,-0002318,14:58:11.057283
0.166650,+0000018,-0000024,-0000015,+0000066,-0000098,+0004143,-0000780,+0000466,-0002318,14:58:11.057283
0.166983,+0000024,-0000042,-0000002,+0000056,-0000083,+0004155,-0000800,+0000478,-0002327,14:58:11.057283
0.167316,+0000016,-0000016,-0000008,+0000060,-0000084,+0004158,-0000800,+0000478,-0002327,14:58:11.057283
0.167649,+0000014,-0000016,-0000019,+0000057,-0000079,+0004156,-0000800,+0000478,-0002327,14:58:11.057283
0.167982,+0000000,-0000001,+0000009,+0000063,-0000096,+0004158,-0000782,+0000468,-0002319,14:58:11.057283
0.168315,+0000016,-0000024,-0000019,+0000044,-0000094,+0004135,-0000782,+0000468,-0002319,14:58:11.057283
0.168648,+0000022,-0000037,-0000005,+0000067,-0000090,+0004147,-0000782,+0000468,-0002319,14:58:11.057283
0.168981,+0000026,-0000020,-0000008,+0000064,-0000078,+0004144,-0000772,+0000474,-0002326,14:58:11.057283
0.169314,+0000013,-0000024,-0000018,+0000041,-0000081,+0004134,-0000772,+0000474,-0002326,14:58:11.057283
0.169647,+0000002,-0000014,-0000004,+0000041,-0000067,+0004150,-0000772,+0000474,-0002326,14:58:11.057283
0.169980,+0000010,-0000011,-0000006,+0000062,-0000089,+0004147,-0000784,+0000480,-0002325,14:58:11.057283
0.170313,+0000018,-0000032,-0000005,+0000053,-0000101,+0004156,-0000784,+0000480,-0002325,14:58:11.057283
0.170646,+0000014,-0000019,-0000014,+0000043,-0000093,+0004147,-0000784,+0000480,-0002325,14:58:11.057283
0.170979,+0000021,-0000032,-0000012,+0000054,-0000073,+0004142,-0000786,+0000466,-0002349,14:58:11.057283
0.171312,+0000010,-0000019,+0000001,+0000051,-0000091,+0004149,-0000786,+0000466,-0002349,14:58:11.057283
0.171645,+0000014,-0000004,-0000010,+0000035,-0000100,+0004158,-0000786,+0000466,-0002349,14:58:11.057283
0.171978,+0000007,-0000015,-0000015,+0000057,-0000080,+0004144,-0000788,+0000466,-0002307,14:58:11.057283
0.172311,+0000016,-0000029,+0000001,+0000059,-0000099,+0004138,-0000788,+0000466,-0002307,14:58:11.057283
0.172644,+0000016,-0000027,+0000004,+0000045,-0000095,+0004159,-0000788,+0000466,-0002307,14:58:11.057283
0.172977,+0000027,-0000040,-0000011,+0000058,-0000094,+0004149,-0000766,+0000466,-0002339,14:58:11.057283
0.173310,+0000013,-0000024,-0000013,+0000056,-0000104,+0004152,-0000766,+0000466,-0002339,14:58:11.057283
0.173643,+0000019,-0000013,-0000013,+0000049,-0000075,+0004147,-0000766,+0000466,-0002339,14:58:11.057283
0.173977,+0000003,-0000015,-0000002,+0000048,-0000099,+0004158,-0000778,+0000476,-0002299,14:58:11.057283
0.174311,+0000017,-0000013,-0000013,+0000051,-0000063,+0004162,-0000778,+0000476,-0002299,14:58:11.057283
0.174648,+0000018,-0000012,+0000003,+0000047,-0000090,+0004142,-0000778,+0000476,-0002299,14:58:11.057283
0.175108,+0000002,-0000015,+0000004,+0000061,-0000083,+0004165,-0000780,+0000472,-0002320,14:58:11.057283
0.175495,+0000031,-0000027,-0000005,+0000036,-0000106,+0004167,-0000780,+0000472,-0002320,14:58:11.057283
0.175648,+0000031,-0000027,-0000005,+0000034,-0000071,+0004149,-0000780,+0000472,-0002320,14:58:11.057283
0.176017,+0000044,-0000052,-0000019,+0000025,-0000084,+0004144,-0000772,+0000482,-0002317,14:58:11.057283
0.176310,+0000000,-0000026,+0000001,+0000058,-0000093,+0004150,-0000772,+0000482,-0002317,14:58:11.057283
0.176646,+0000021,-0000021,-0000011,+0000047,-0000088,+0004141,-0000772,+0000482,-0002317,14:58:11.057283
0.176974,+0000019,-0000042,-0000019,+0000051,-0000098,+0004151,-0000784,+0000462,-0002332,14:58:11.057283
0.177306,+0000005,-0000021,-0000005,+0000039,-0000078,+0004146,-0000784,+0000462,-0002332,14:58:11.057283
0.177639,+0000008,-0000013,-0000015,+0000043,-0000101,+0004145,-0000784,+0000462,-0002332,14:58:11.057283
0.177972,-0000006,-0000005,+0000001,+0000055,-0000088,+0004148,-0000788,+0000484,-0002333,14:58:11.057283
0.178305,+0000016,-0000042,-0000010,+0000056,-0000103,+0004163,-0000788,+0000484,-0002333,14:58:11.057283
0.178665,+0000029,-0000039,-0000007,+0000046,-0000082,+0004150,-0000788,+0000484,-0002333,14:58:11.057283
0.178971,+0000005,-0000026,-0000010,+0000061,-0000077,+0004158,-0000788,+0000474,-0002293,14:58:11.057283
0.179304,-0000001,-0000010,-0000002,+0000048,-0000106,+0004153,-0000788,+0000474,-0002293,14:58:11.057283
0.179637,+0000021,-0000008,-0000010,+0000049,-0000097,+0004146,-0000788,+0000474,-0002293,14:58:11.057283
0.179970,+0000019,-0000023,-0000013,+0000060,-0000099,+0004151,-0000790,+0000508,-0002315,14:58:11.057283
0.180304,+0000030,-0000027,+0000005,+0000037,-0000098,+0004141,-0000790,+0000508,-0002315,14:58:11.057283
0.180636,+0000014,-0000039,-0000010,+0000041,-0000095,+0004139,-0000790,+0000508,-0002315,14:58:11.057283
0.180969,+0000021,-0000024,-0000007,+0000044,-0000078,+0004135,-0000790,+0000482,-0002320,14:58:11.057283
0.181302,+0000002,-0000016,+0000012,+0000041,-0000085,+0004150,-0000790,+0000482,-0002320,14:58:11.057283
0.181635,+0000009,-0000005,-0000024,+0000042,-0000108,+0004144,-0000790,+0000482,-0002320,14:58:11.057283
0.181968,+0000017,-0000024,-0000002,+0000055,-0000085,+0004136,-0000776,+0000470,-0002320,14:58:11.057283
0.182301,+0000014,-0000037,-0000004,+0000045,-0000106,+0004147,-0000776,+0000470,-0002320,14:58:11.057283
0.182634,+0000025,-0000018,+0000000,+0000044,-0000091,+0004137,-0000776,+0000470,-0002320,14:58:11.057283
0.182967,+0000005,-0000010,-0000015,+0000052,-0000076,+0004143,-0000772,+0000476,-0002307,14:58:11.057283
0.183300,+0000017,-0000016,+0000006,+0000025,-0000063,+0004150,-0000772,+0000476,-0002307,14:58:11.057283
0.183633,+0000014,-0000008,-0000011,+0000046,-0000084,+0004154,-0000772,+0000476,-0002307,14:58:11.058274
0.183966,+0000015,-0000019,-0000002,+0000061,-0000089,+0004149,-0000776,+0000474,-0002323,14:58:11.058274
0.184299,+0000019,-0000040,-0000016,+0000048,-0000122,+0004158,-0000776,+0000474,-0002323,14:58:11.058274
0.184632,+0000020,-0000031,-0000005,+0000049,-0000061,+0004160,-0000776,+0000474,-0002323,14:58:11.058274
0.184965,+0000011,-0000015,-0000005,+0000055,-0000094,+0004149,-0000786,+0000488,-0002307,14:58:11.058274
0.185298,+0000011,-0000026,-0000023,+0000050,-0000081,+0004146,-0000786,+0000488,-0002307,14:58:11.058274
0.185631,-0000002,-0000010,+0000003,+0000068,-0000094,+0004155,-0000786,+0000488,-0002307,14:58:11.058274
0.185964,+0000014,-0000023,-0000011,+0000046,-0000110,+0004150,-0000786,+0000458,-0002312,14:58:11.058274
0.186297,+0000019,-0000030,-0000008,+0000047,-0000081,+0004158,-0000786,+0000458,-0002312,14:58:11.058274
0.186630,+0000011,-0000034,-0000018,+0000058,-0000092,+0004166,-0000786,+0000458,-0002312,14:58:11.058274
0.186963,+0000014,-0000027,-0000008,+0000040,-0000097,+0004165,-0000784,+0000474,-0002315,14:58:11.058274
0.187296,+0000013,-0000013,-0000005,+0000046,-0000082,+0004156,-0000784,+0000474,-0002315,14:58:11.058274
0.187629,+0000007,-0000016,-0000010,+0000039,-0000068,+0004155,-0000784,+0000474,-0002315,14:58:11.058274
0.187962,+0000016,-0000015,+0000006,+0000032,-0000053,+0004161,-0000786,+0000490,-0002330,14:58:11.058274
0.188295,+0000013,-0000042,-0000016,+0000044,-0000098,+0004140,-0000786,+0000490,-0002330,14:58:11.058274
0.188628,+0000027,-0000038,-0000010,+0000042,-0000107,+0004153,-0000786,+0000490,-0002330,14:58:11.058274
0.188961,+0000011,-0000026,-0000010,+0000048,-0000110,+0004156,-0000794,+0000484,-0002305,14:58:11.058274
0.189294,+0000019,-0000018,-0000007,+0000048,-0000100,+0004150,-0000794,+0000484,-0002305,14:58:11.058274
0.189627,+0000011,-0000005,-0000002,+0000040,-0000086,+0004175,-0000794,+0000484,-0002305,14:58:11.058274
0.189960,+0000014,-0000037,+0000000,+0000042,-0000090,+0004140,-0000782,+0000492,-0002312,14:58:11.058274
0.190293,+0000021,-0000029,-0000015,+0000039,-0000092,+0004141,-0000782,+0000492,-0002312,14:58:11.058274
0.190626,+0000031,-0000037,-0000007,+0000045,-0000119,+0004163,-0000782,+0000492,-0002312,14:58:11.058274
0.190959,+0000010,-0000027,-0000016,+0000048,-0000085,+0004152,-0000784,+0000478,-0002291,14:58:11.058274
0.191292,+0000000,-0000001,-0000005,+0000055,-0000074,+0004178,-0000784,+0000478,-0002291,14:58:11.058274
0.191625,+0000008,-0000023,+0000001,+0000046,-0000104,+0004152,-0000784,+0000478,-0002291,14:58:11.058274
0.191958,+0000017,-0000030,-0000016,+0000037,-0000096,+0004153,-0000780,+0000488,-0002336,14:58:11.058274
0.192291,+0000008,-0000037,+0000004,+0000053,-0000081,+0004159,-0000780,+0000488,-0002336,14:58:11.058274
0.192626,+0000033,-0000040,-0000022,+0000053,-0000127,+0004170,-0000780,+0000488,-0002336,14:58:11.058274
0.192957,-0000001,-0000002,-0000015,+0000028,-0000091,+0004170,-0000780,+0000490,-0002313,14:58:11.058274
0.193290,-0000001,-0000010,+0000003,+0000040,-0000098,+0004149,-0000780,+0000490,-0002313,14:58:11.058274
0.193623,+0000013,-0000021,-0000010,+0000048,-0000095,+0004135,-0000780,+0000490,-0002313,14:58:11.058274
0.193956,+0000018,-0000035,-0000010,+0000065,-0000105,+0004156,-0000802,+0000480,-0002327,14:58:11.058274
0.194289,+0000033,-0000040,-0000015,+0000061,-0000073,+0004151,-0000802,+0000480,-0002327,14:58:11.058274
0.194622,+0000019,-0000013,-0000010,+0000053,-0000067,+0004174,-0000802,+0000480,-0002327,14:58:11.058274
0.194955,+0000006,-0000026,-0000010,+0000051,-0000098,+0004158,-0000782,+0000478,-0002313,14:58:11.058274
0.195288,+0000010,-0000010,+0000000,+0000048,-0000107,+0004160,-0000782,+0000478,-0002313,14:58:11.058274
0.195621,+0000002,-0000032,-0000003,+0000064,-0000080,+0004155,-0000782,+0000478,-0002313,14:58:11.058274
0.195954,+0000024,-0000035,-0000005,+0000044,-0000091,+0004137,-0000790,+0000484,-0002340,14:58:11.058274
0.196287,+0000016,-0000034,-0000003,+0000051,-0000098,+0004156,-0000790,+0000484,-0002340,14:58:11.058274
0.196620,-0000003,-0000013,-0000008,+0000038,-0000089,+0004173,-0000790,+0000484,-0002340,14:58:11.058274
0.196953,+0000022,-0000018,-0000006,+0000041,-0000097,+0004164,-0000770,+0000480,-0002318,14:58:11.058274
0.197286,+0000014,-0000021,-0000008,+0000040,-0000079,+0004157,-0000770,+0000480,-0002318,14:58:11.058274
0.197619,+0000002,-0000013,+0000000,+0000052,-0000109,+0004155,-0000770,+0000480,-0002318,14:58:11.058274
0.197953,+0000013,-0000047,-0000013,+0000048,-0000090,+0004153,-0000798,+0000482,-0002311,14:58:11.058274
0.198285,+0000005,-0000021,-0000002,+0000057,-0000090,+0004161,-0000798,+0000482,-0002311,14:58:11.058274
0.198618,+0000014,-0000023,-0000022,+0000072,-0000099,+0004135,-0000798,+0000482,-0002311,14:58:11.058274
0.198951,+0000002,-0000015,-0000006,+0000052,-0000079,+0004154,-0000786,+0000492,-0002307,14:58:11.058274
0.199284,+0000004,-0000008,+0000001,+0000041,-0000084,+0004122,-0000786,+0000492,-0002307,14:58:11.058274
0.199617,+0000005,-0000029,-0000013,+0000050,-0000098,+0004150,-0000786,+0000492,-0002307,14:58:11.058274
0.199950,+0000025,-0000020,+0000008,+0000070,-0000115,+0004166,-0000762,+0000458,-0002309,14:58:11.058274
0.200283,+0000014,-0000026,-0000021,+0000057,-0000081,+0004166,-0000762,+0000458,-0002309,14:58:11.058274
0.200616,+0000019,-0000027,-0000010,+0000059,-0000090,+0004153,-0000762,+0000458,-0002309,14:58:11.058274
0.201002,+0000002,-0000016,-0000020,+0000044,-0000074,+0004165,-0000780,+0000480,-0002315,14:58:11.058274
0.201282,-0000001,-0000012,+0000000,+0000035,-0000099,+0004142,-0000780,+0000480,-0002315,14:58:11.058274
0.201777,+0000035,-0000038,-0000013,+0000043,-0000075,+0004166,-0000780,+0000480,-0002315,14:58:11.058274
0.201965,+0000000,-0000027,-0000008,+0000042,-0000111,+0004166,-0000776,+0000478,-0002314,14:58:11.058274
0.202287,+0000029,-0000031,+0000000,+0000052,-0000110,+0004157,-0000776,+0000478,-0002314,14:58:11.058274
0.202617,+0000015,-0000031,-0000007,+0000042,-0000105,+0004154,-0000776,+0000478,-0002314,14:58:11.058274
0.202949,+0000000,-0000018,-0000006,+0000056,-0000099,+0004142,-0000790,+0000466,-0002293,14:58:11.058274
0.203282,+0000011,-0000012,+0000003,+0000051,-0000101,+0004141,-0000790,+0000466,-0002293,14:58:11.058274
0.203613,+0000017,-0000029,-0000014,+0000055,-0000103,+0004134,-0000790,+0000466,-0002293,14:58:11.058274
0.203947,+0000024,-0000040,-0000011,+0000047,-0000094,+0004147,-0000776,+0000472,-0002304,14:58:11.058274
0.204279,+0000008,-0000031,-0000016,+0000041,-0000108,+0004137,-0000776,+0000472,-0002304,14:58:11.058274
0.204612,+0000008,-0000016,-0000008,+0000048,-0000097,+0004149,-0000776,+0000472,-0002304,14:58:11.058274
0.204945,-0000004,-0000002,-0000006,+0000055,-0000087,+0004159,-0000788,+0000458,-0002305,14:58:11.058274
0.205279,+0000002,-0000008,+0000001,+0000055,-0000102,+0004140,-0000788,+0000458,-0002305,14:58:11.058274
0.205612,+0000022,-0000037,-0000006,+0000054,-0000090,+0004149,-0000788,+0000458,-0002305,14:58:11.058274
0.205944,+0000013,-0000029,-0000010,+0000042,-0000103,+0004179,-0000784,+0000472,-0002298,14:58:11.058274
0.206277,+0000025,-0000043,-0000013,+0000036,-0000095,+0004169,-0000784,+0000472,-0002298,14:58:11.058274
0.206610,+0000003,+0000006,-0000002,+0000064,-0000078,+0004154,-0000784,+0000472,-0002298,14:58:11.058274
0.206943,+0000014,-0000013,-0000003,+0000038,-0000098,+0004146,-0000786,+0000470,-0002298,14:58:11.058274
0.207276,+0000018,-0000031,-0000011,+0000043,-0000081,+0004147,-0000786,+0000470,-0002298,14:58:11.058274
0.207609,+0000016,-0000019,+0000001,+0000045,-0000084,+0004139,-0000786,+0000470,-0002298,14:58:11.058274
0.207942,+0000035,-0000047,-0000024,+0000044,-0000069,+0004147,-0000788,+0000482,-0002303,14:58:11.058274
0.208275,+0000016,-0000010,-0000006,+0000072,-0000069,+0004148,-0000788,+0000482,-0002303,14:58:11.058274
0.208608,+0000005,-0000004,-0000010,+0000056,-0000082,+0004150,-0000788,+0000482,-0002303,14:58:11.058274
0.208941,+0000016,-0000015,+0000001,+0000043,-0000104,+0004146,-0000780,+0000490,-0002315,14:58:11.058274
0.209274,+0000021,-0000023,-0000018,+0000051,-0000095,+0004150,-0000780,+0000490,-0002315,14:58:11.058274
0.209607,+0000018,-0000032,+0000001,+0000041,-0000085,+0004170,-0000780,+0000490,-0002315,14:58:11.058274
0.209940,+0000021,-0000034,-0000016,+0000039,-0000094,+0004175,-0000792,+0000480,-0002314,14:58:11.058274
0.210273,+0000000,-0000008,-0000005,+0000062,-0000093,+0004141,-0000792,+0000480,-0002314,14:58:11.058274
0.210606,+0000007,-0000016,-0000014,+0000049,-0000098,+0004159,-0000792,+0000480,-0002314,14:58:11.058274
0.210939,+0000007,-0000022,+0000000,+0000046,-0000086,+0004139,-0000772,+0000472,-0002325,14:58:11.058274
0.211272,+0000005,-0000008,-0000010,+0000053,-0000095,+0004153,-0000772,+0000472,-0002325,14:58:11.058274
0.211605,+0000019,-0000045,-0000010,+0000029,-0000097,+0004150,-0000772,+0000472,-0002325,14:58:11.058274
0.211938,+0000027,-0000032,-0000007,+0000041,-0000095,+0004145,-0000788,+0000464,-0002327,14:58:11.058274
0.212271,+0000016,-0000027,-0000015,+0000034,-0000108,+0004146,-0000788,+0000464,-0002327,14:58:11.058274
0.212604,-0000006,-0000015,-0000005,+0000052,-0000113,+0004140,-0000788,+0000464,-0002327,14:58:11.058274
0.212937,+0000003,-0000006,-0000010,+0000068,-0000095,+0004156,-0000774,+0000466,-0002316,14:58:11.058274
0.213270,+0000016,-0000021,-0000002,+0000057,-0000107,+0004145,-0000774,+0000466,-0002316,14:58:11.058274
0.213603,+0000032,-0000032,-0000010,+0000058,-0000090,+0004158,-0000774,+0000466,-0002316,14:58:11.058274
0.213936,+0000030,-0000045,-0000013,+0000054,-0000097,+0004135,-0000784,+0000468,-0002311,14:58:11.058274
0.214269,+0000003,-0000015,-0000008,+0000042,-0000088,+0004146,-0000784,+0000468,-0002311,14:58:11.058274
0.214602,+0000014,-0000015,-0000005,+0000052,-0000067,+0004162,-0000784,+0000468,-0002311,14:58:11.058274
0.214935,+0000006,-0000021,-0000004,+0000047,-0000062,+0004159,-0000780,+0000472,-0002304,14:58:11.058274
0.215268,+0000017,-0000019,-0000005,+0000044,-0000094,+0004163,-0000780,+0000472,-0002304,14:58:11.058274
0.215601,+0000025,-0000034,-0000005,+0000048,-0000103,+0004144,-0000780,+0000472,-0002304,14:58:11.058274
0.215934,+0000010,-0000026,-0000011,+0000049,-0000097,+0004156,-0000768,+0000482,-0002300,14:58:11.058274
0.216267,+0000027,-0000021,-0000002,+0000058,-0000088,+0004178,-0000768,+0000482,-0002300,14:58:11.058274
0.216600,+0000005,-0000011,-0000016,+0000064,-0000093,+0004148,-0000768,+0000482,-0002300,14:58:11.058274
0.216933,+0000005,-0000014,+0000002,+0000047,-0000083,+0004154,-0000782,+0000470,-0002311,14:58:11.058274
0.217266,+0000010,-0000027,+0000001,+0000063,-0000077,+0004136,-0000782,+0000470,-0002311,14:58:11.058274
0.217599,+0000022,-0000032,-0000013,+0000044,-0000081,+0004158,-0000782,+0000470,-0002311,14:58:11.058274
0.217932,+0000033,-0000035,-0000011,+0000053,-0000082,+0004162,-0000790,+0000484,-0002289,14:58:11.058274
0.218265,+0000011,-0000029,+0000000,+0000038,-0000100,+0004168,-0000790,+0000484,-0002289,14:58:11.058274
0.218598,+0000010,-0000004,-0000008,+0000050,-0000092,+0004159,-0000790,+0000484,-0002289,14:58:11.058274
0.218931,-0000003,-0000013,-0000002,+0000048,-0000068,+0004157,-0000778,+0000478,-0002307,14:58:11.058274
0.219264,+0000021,-0000038,-0000007,+0000056,-0000086,+0004159,-0000778,+0000478,-0002307,14:58:11.058274
0.219597,+0000021,-0000032,-0000016,+0000057,-0000079,+0004150,-0000778,+0000478,-0002307,14:58:11.058274
0.219930,+0000027,-0000039,-0000016,+0000048,-0000085,+0004137,-0000790,+0000480,-0002336,14:58:11.058274
0.220263,+0000003,+0000011,-0000010,+0000053,-0000075,+0004145,-0000790,+0000480,-0002336,14:58:11.058274
0.220596,+0000011,-0000021,-0000001,+0000046,-0000097,+0004147,-0000790,+0000480,-0002336,14:58:11.058274
0.220929,+0000018,-0000032,-0000013,+0000050,-0000095,+0004157,-0000780,+0000488,-0002303,14:58:11.058274
0.221262,+0000005,-0000027,+0000002,+0000062,-0000088,+0004166,-0000780,+0000488,-0002303,14:58:11.058274
0.221595,+0000044,-0000042,-0000026,+0000042,-0000097,+0004153,-0000780,+0000488,-0002303,14:58:11.058274
0.221928,+0000011,-0000021,-0000024,+0000058,-0000060,+0004159,-0000806,+0000486,-0002302,14:58:11.059275
0.222261,+0000015,-0000010,+0000001,+0000041,-0000083,+0004144,-0000806,+0000486,-0002302,14:58:11.059275
0.222594,-0000003,-0000013,-0000002,+0000058,-0000088,+0004152,-0000806,+0000486,-0002302,14:58:11.059275
0.222927,+0000018,-0000024,-0000007,+0000042,-0000078,+0004137,-0000774,+0000470,-0002306,14:58:11.059275
0.223260,+0000019,-0000027,-0000011,+0000053,-0000078,+0004154,-0000774,+0000470,-0002306,14:58:11.060274
0.223593,+0000020,-0000013,-0000008,+0000049,-0000082,+0004163,-0000774,+0000470,-0002306,14:58:11.060274
0.223927,+0000024,-0000023,-0000014,+0000054,-0000082,+0004167,-0000778,+0000470,-0002311,14:58:11.060274
0.224260,-0000001,-0000025,-0000007,+0000061,-0000091,+0004147,-0000778,+0000470,-0002311,14:58:11.060274
0.224968,+0000010,-0000015,-0000002,+0000050,-0000100,+0004166,-0000778,+0000470,-0002311,14:58:11.060274
0.225345,-0000001,-0000008,-0000003,+0000059,-0000086,+0004153,-0000770,+0000484,-0002306,14:58:11.060274
0.225683,+0000015,-0000008,-0000010,+0000061,-0000066,+0004141,-0000770,+0000484,-0002306,14:58:11.060274
0.226008,+0000006,-0000019,-0000006,+0000050,-0000097,+0004140,-0000770,+0000484,-0002306,14:58:11.060274
0.226259,+0000021,-0000031,-0000019,+0000041,-0000106,+0004164,-0000776,+0000474,-0002300,14:58:11.060274
0.226591,+0000007,-0000013,-0000002,+0000035,-0000084,+0004144,-0000776,+0000474,-0002300,14:58:11.060274
0.227070,+0000033,-0000039,-0000011,+0000061,-0000081,+0004157,-0000776,+0000474,-0002300,14:58:11.060274
0.227256,+0000007,-0000031,-0000012,+0000043,-0000073,+0004148,-0000768,+0000484,-0002293,14:58:11.060274
0.227589,+0000019,-0000020,+0000001,+0000059,-0000098,+0004135,-0000768,+0000484,-0002293,14:58:11.060274
0.227922,+0000008,-0000031,-0000019,+0000068,-0000107,+0004169,-0000768,+0000484,-0002293,14:58:11.060274
0.228256,+0000017,-0000018,-0000022,+0000056,-0000093,+0004160,-0000760,+0000492,-0002307,14:58:11.060274
0.228591,-0000011,-0000016,-0000013,+0000033,-0000082,+0004151,-0000760,+0000492,-0002307,14:58:11.060274
0.228927,+0000022,-0000047,-0000021,+0000051,-0000092,+0004138,-0000760,+0000492,-0002307,14:58:11.060274
0.229255,+0000006,-0000014,+0000011,+0000039,-0000095,+0004145,-0000770,+0000462,-0002318,14:58:11.060274
0.229588,+0000006,-0000018,-0000019,+0000056,-0000065,+0004144,-0000770,+0000462,-0002318,14:58:11.060274
0.229921,+0000002,-0000015,-0000011,+0000026,-0000091,+0004168,-0000770,+0000462,-0002318,14:58:11.060274
0.230282,+0000002,-0000008,-0000019,+0000042,-0000079,+0004159,-0000774,+0000460,-0002300,14:58:11.060274
0.230586,-0000003,-0000015,+0000000,+0000045,-0000096,+0004169,-0000774,+0000460,-0002300,14:58:11.060274
0.230920,+0000029,-0000005,-0000014,+0000037,-0000076,+0004160,-0000774,+0000460,-0002300,14:58:11.060274
0.231252,+0000018,-0000032,-0000004,+0000082,-0000074,+0004151,-0000772,+0000472,-0002303,14:58:11.060274
0.231586,+0000020,-0000037,-0000010,+0000055,-0000079,+0004146,-0000772,+0000472,-0002303,14:58:11.060274
0.231919,+0000006,-0000007,-0000012,+0000054,-0000087,+0004149,-0000772,+0000472,-0002303,14:58:11.060274
0.232252,+0000005,+0000009,+0000006,+0000043,-0000103,+0004151,-0000772,+0000478,-0002311,14:58:11.060274
0.232584,+0000003,-0000021,-0000007,+0000035,-0000076,+0004151,-0000772,+0000478,-0002311,14:58:11.060274
0.232918,+0000024,-0000030,-0000011,+0000051,-0000088,+0004157,-0000772,+0000478,-0002311,14:58:11.060274
0.233255,+0000016,-0000036,-0000011,+0000036,-0000072,+0004156,-0000778,+0000472,-0002310,14:58:11.060274
0.233584,+0000014,-0000032,-0000007,+0000045,-0000104,+0004163,-0000778,+0000472,-0002310,14:58:11.060274
0.233916,+0000005,-0000012,-0000019,+0000051,-0000102,+0004161,-0000778,+0000472,-0002310,14:58:11.060274
0.234249,+0000005,-0000016,+0000006,+0000038,-0000088,+0004175,-0000770,+0000470,-0002325,14:58:11.060274
0.234582,+0000013,-0000023,-0000018,+0000041,-0000094,+0004140,-0000770,+0000470,-0002325,14:58:11.060274
0.234915,+0000002,-0000031,+0000004,+0000031,-0000078,+0004153,-0000770,+0000470,-0002325,14:58:11.060274
0.235248,+0000027,-0000037,-0000013,+0000057,-0000079,+0004156,-0000764,+0000474,-0002322,14:58:11.060274
0.235581,+0000013,-0000021,-0000008,+0000052,-0000078,+0004146,-0000764,+0000474,-0002322,14:58:11.060274
0.235914,+0000003,-0000020,+0000006,+0000048,-0000076,+0004166,-0000764,+0000474,-0002322,14:58:11.060274
0.236247,+0000010,+0000000,-0000016,+0000040,-0000093,+0004135,-0000782,+0000486,-0002321,14:58:11.060274
0.236580,+0000004,-0000028,-0000004,+0000051,-0000094,+0004127,-0000782,+0000486,-0002321,14:58:11.060274
0.236913,+0000021,-0000040,-0000008,+0000052,-0000096,+0004153,-0000782,+0000486,-0002321,14:58:11.060274
0.237246,+0000020,-0000019,-0000010,+0000042,-0000108,+0004158,-0000776,+0000466,-0002303,14:58:11.060274
0.237579,+0000016,-0000023,-0000011,+0000058,-0000088,+0004139,-0000776,+0000466,-0002303,14:58:11.060274
0.237912,-0000003,-0000011,-0000016,+0000042,-0000077,+0004163,-0000776,+0000466,-0002303,14:58:11.060274
0.238245,+0000014,-0000023,-0000007,+0000059,-0000068,+0004145,-0000766,+0000484,-0002302,14:58:11.060274
0.238578,+0000015,-0000024,+0000003,+0000069,-0000096,+0004145,-0000766,+0000484,-0002302,14:58:11.060274
0.238911,+0000016,-0000035,-0000012,+0000059,-0000085,+0004133,-0000766,+0000484,-0002302,14:58:11.060274
0.239244,+0000025,-0000031,-0000008,+0000035,-0000081,+0004144,-0000764,+0000474,-0002317,14:58:11.060274
0.239577,+0000014,-0000021,-0000012,+0000028,-0000091,+0004143,-0000764,+0000474,-0002317,14:58:11.060274
0.239910,+0000013,-0000021,-0000015,+0000049,-0000073,+0004151,-0000764,+0000474,-0002317,14:58:11.060274
0.240243,+0000000,-0000011,-0000001,+0000040,-0000094,+0004149,-0000778,+0000486,-0002325,14:58:11.060274
0.240576,+0000019,-0000026,-0000002,+0000070,-0000105,+0004138,-0000778,+0000486,-0002325,14:58:11.060274
0.240909,+0000020,-0000035,-0000007,+0000056,-0000087,+0004163,-0000778,+0000486,-0002325,14:58:11.060274
0.241242,+0000011,-0000036,-0000008,+0000050,-0000090,+0004154,-0000758,+0000484,-0002310,14:58:11.060274
0.241575,+0000017,-0000018,-0000007,+0000056,-0000078,+0004149,-0000758,+0000484,-0002310,14:58:11.060274
0.241908,+0000021,-0000026,-0000013,+0000055,-0000084,+0004149,-0000758,+0000484,-0002310,14:58:11.060274
0.242241,+0000008,-0000010,-0000004,+0000058,-0000081,+0004154,-0000766,+0000466,-0002319,14:58:11.060274
0.242574,+0000013,-0000018,+0000000,+0000051,-0000068,+0004149,-0000766,+0000466,-0002319,14:58:11.060274
0.242907,+0000014,-0000029,-0000002,+0000041,-0000089,+0004133,-0000766,+0000466,-0002319,14:58:11.060274
0.243240,+0000014,-0000035,-0000021,+0000048,-0000079,+0004148,-0000764,+0000480,-0002318,14:58:11.060274
0.243573,+0000022,-0000017,-0000007,+0000051,-0000068,+0004159,-0000764,+0000480,-0002318,14:58:11.060274
0.243906,+0000009,-0000007,+0000000,+0000044,-0000089,+0004149,-0000764,+0000480,-0002318,14:58:11.060274
0.244239,+0000000,+0000000,+0000006,+0000044,-0000092,+0004166,-0000766,+0000474,-0002315,14:58:11.060274
0.244572,+0000008,-0000018,-0000014,+0000049,-0000086,+0004144,-0000766,+0000474,-0002315,14:58:11.060274
0.244905,+0000036,-0000043,-0000013,+0000052,-0000090,+0004143,-0000766,+0000474,-0002315,14:58:11.060274
0.245238,+0000017,-0000028,-0000015,+0000049,-0000087,+0004132,-0000764,+0000462,-0002319,14:58:11.060274
0.245571,+0000010,-0000017,-0000004,+0000042,-0000078,+0004139,-0000764,+0000462,-0002319,14:58:11.060274
0.245904,+0000008,-0000013,-0000008,+0000066,-0000093,+0004140,-0000764,+0000462,-0002319,14:58:11.060274
0.246237,-0000012,-0000015,+0000009,+0000031,-0000105,+0004131,-0000788,+0000472,-0002323,14:58:11.060274
0.246570,+0000030,-0000037,-0000021,+0000030,-0000077,+0004143,-0000788,+0000472,-0002323,14:58:11.060274
0.246903,+0000025,-0000031,-0000001,+0000025,-0000085,+0004147,-0000788,+0000472,-0002323,14:58:11.060274
0.247236,+0000018,-0000037,-0000013,+0000041,-0000084,+0004154,-0000780,+0000476,-0002304,14:58:11.060274
0.247569,+0000005,-0000004,-0000002,+0000043,-0000087,+0004166,-0000780,+0000476,-0002304,14:58:11.060274
0.247902,-0000011,-0000010,+0000000,+0000040,-0000095,+0004140,-0000780,+0000476,-0002304,14:58:11.060274
0.248235,+0000027,-0000034,-0000016,+0000046,-0000084,+0004125,-0000774,+0000468,-0002313,14:58:11.060274
0.248568,+0000002,-0000016,+0000006,+0000039,-0000091,+0004159,-0000774,+0000468,-0002313,14:58:11.060274
0.248901,+0000032,-0000051,-0000016,+0000051,-0000066,+0004150,-0000774,+0000468,-0002313,14:58:11.060274
0.249234,+0000014,-0000024,-0000010,+0000048,-0000078,+0004135,-0000770,+0000460,-0002314,14:58:11.060274
0.249567,+0000005,-0000005,+0000000,+0000046,-0000089,+0004148,-0000770,+0000460,-0002314,14:58:11.060274
0.249900,+0000008,-0000023,-0000021,+0000049,-0000084,+0004135,-0000770,+0000460,-0002314,14:58:11.060274
0.250233,+0000011,-0000012,-0000003,+0000037,-0000090,+0004155,-0000766,+0000470,-0002334,14:58:11.060274
0.250566,+0000011,-0000026,-0000007,+0000054,-0000083,+0004160,-0000766,+0000470,-0002334,14:58:11.060274
0.250899,+0000036,-0000023,-0000004,+0000052,-0000076,+0004144,-0000766,+0000470,-0002334,14:58:11.060274
0.251232,+0000021,-0000010,-0000014,+0000046,-0000082,+0004155,-0000766,+0000482,-0002286,14:58:11.060274
0.251565,+0000010,-0000016,-0000010,+0000021,-0000087,+0004148,-0000766,+0000482,-0002286,14:58:11.060274
0.251898,+0000003,-0000018,+0000001,+0000040,-0000080,+0004165,-0000766,+0000482,-0002286,14:58:11.060274
0.252231,+0000008,-0000018,-0000006,+0000042,-0000086,+0004153,-0000770,+0000484,-0002322,14:58:11.060274
0.252565,+0000028,-0000020,+0000001,+0000061,-0000087,+0004161,-0000770,+0000484,-0002322,14:58:11.060274
0.252897,+0000007,-0000026,-0000018,+0000046,-0000102,+0004147,-0000770,+0000484,-0002322,14:58:11.060274
0.253230,+0000005,-0000018,-0000005,+0000035,-0000094,+0004144,-0000782,+0000466,-0002324,14:58:11.060274
0.253563,+0000028,-0000024,-0000010,+0000049,-0000098,+0004156,-0000782,+0000466,-0002324,14:58:11.060274
0.253896,-0000014,-0000005,-0000002,+0000054,-0000081,+0004165,-0000782,+0000466,-0002324,14:58:11.060274
0.254229,+0000021,-0000028,-0000011,+0000043,-0000079,+0004166,-0000780,+0000470,-0002309,14:58:11.060274
0.254562,+0000008,-0000023,-0000007,+0000035,-0000083,+0004155,-0000780,+0000470,-0002309,14:58:11.060274
0.254895,+0000031,-0000046,-0000025,+0000045,-0000098,+0004161,-0000780,+0000470,-0002309,14:58:11.060274
0.255228,+0000000,-0000015,-0000004,+0000029,-0000102,+0004149,-0000774,+0000472,-0002322,14:58:11.060274
0.255561,+0000011,-0000007,-0000002,+0000039,-0000066,+0004163,-0000774,+0000472,-0002322,14:58:11.060274
0.255894,+0000005,-0000023,-0000014,+0000031,-0000087,+0004165,-0000774,+0000472,-0002322,14:58:11.060274
0.256227,+0000001,-0000019,+0000004,+0000047,-0000085,+0004144,-0000762,+0000490,-0002320,14:58:11.060274
0.256560,+0000033,-0000031,-0000013,+0000050,-0000077,+0004138,-0000762,+0000490,-0002320,14:58:11.061275
0.256893,+0000018,-0000045,-0000011,+0000046,-0000094,+0004134,-0000762,+0000490,-0002320,14:58:11.061275
0.257226,+0000005,-0000029,-0000011,+0000044,-0000112,+0004135,-0000766,+0000484,-0002344,14:58:11.061275
0.257559,+0000013,-0000016,-0000019,+0000051,-0000081,+0004147,-0000766,+0000484,-0002344,14:58:11.061275
0.257892,+0000003,-0000002,+0000001,+0000045,-0000088,+0004157,-0000766,+0000484,-0002344,14:58:11.061275
0.258225,+0000005,-0000031,-0000021,+0000035,-0000080,+0004169,-0000776,+0000474,-0002295,14:58:11.061275
0.258558,+0000033,-0000029,-0000007,+0000037,-0000076,+0004161,-0000776,+0000474,-0002295,14:58:11.061275
0.258891,+0000024,-0000033,-0000011,+0000038,-0000086,+0004158,-0000776,+0000474,-0002295,14:58:11.061275
0.259224,+0000005,-0000020,-0000007,+0000026,-0000101,+0004141,-0000764,+0000482,-0002305,14:58:11.061275
0.259557,+0000010,-0000012,-0000018,+0000040,-0000069,+0004156,-0000764,+0000482,-0002305,14:58:11.061275
0.259890,+0000013,-0000010,-0000002,+0000048,-0000080,+0004152,-0000764,+0000482,-0002305,14:58:11.061275
0.260223,+0000014,-0000035,+0000002,+0000046,-0000091,+0004144,-0000770,+0000480,-0002336,14:58:11.061275
0.260556,+0000032,-0000042,-0000011,+0000030,-0000072,+0004163,-0000770,+0000480,-0002336,14:58:11.061275
0.260889,+0000024,-0000034,-0000011,+0000046,-0000104,+0004148,-0000770,+0000480,-0002336,14:58:11.061275
0.261222,+0000000,-0000007,-0000005,+0000055,-0000079,+0004146,-0000760,+0000482,-0002320,14:58:11.061275
0.261555,-0000001,-0000005,-0000005,+0000063,-0000097,+0004129,-0000760,+0000482,-0002320,14:58:11.061275
0.261888,+0000019,-0000034,-0000016,+0000052,-0000074,+0004134,-0000760,+0000482,-0002320,14:58:11.061275
0.262221,+0000016,-0000027,+0000008,+0000032,-0000075,+0004147,-0000788,+0000482,-0002320,14:58:11.061275
0.262554,+0000023,-0000037,-0000023,+0000039,-0000087,+0004166,-0000788,+0000482,-0002320,14:58:11.061275
0.262887,+0000016,-0000016,-0000014,+0000049,-0000089,+0004156,-0000788,+0000482,-0002320,14:58:11.061275
0.263220,+0000011,-0000014,+0000003,+0000031,-0000076,+0004147,-0000764,+0000464,-0002324,14:58:11.061275
0.263553,+0000013,-0000024,-0000011,+0000046,-0000099,+0004144,-0000764,+0000464,-0002324,14:58:11.061275
0.263886,+0000010,-0000005,-0000014,+0000050,-0000090,+0004149,-0000764,+0000464,-0002324,14:58:11.061275
0.264219,+0000025,-0000040,+0000003,+0000046,-0000094,+0004147,-0000780,+0000478,-0002303,14:58:11.061275
0.264552,+0000032,-0000024,+0000001,+0000046,-0000096,+0004150,-0000780,+0000478,-0002303,14:58:11.061275
0.264885,-0000004,-0000007,-0000006,+0000040,-0000075,+0004147,-0000780,+0000478,-0002303,14:58:11.061275
0.265218,+0000018,-0000021,-0000008,+0000049,-0000083,+0004147,-0000780,+0000468,-0002307,14:58:11.061275
0.265551,+0000018,-0000019,-0000010,+0000030,-0000083,+0004139,-0000780,+0000468,-0002307,14:58:11.061275
0.265884,+0000000,-0000027,-0000007,+0000029,-0000084,+0004142,-0000780,+0000468,-0002307,14:58:11.061275
0.266217,+0000027,-0000027,-0000016,+0000052,-0000119,+0004162,-0000770,+0000472,-0002333,14:58:11.061275
0.266550,+0000022,-0000043,-0000015,+0000048,-0000086,+0004161,-0000770,+0000472,-0002333,14:58:11.061275
0.266883,+0000027,-0000026,-0000006,+0000047,-0000067,+0004159,-0000770,+0000472,-0002333,14:58:11.061275
0.267216,-0000003,-0000010,-0000002,+0000036,-0000083,+0004152,-0000776,+0000482,-0002295,14:58:11.061275
0.267549,+0000002,-0000015,-0000010,+0000048,-0000080,+0004141,-0000776,+0000482,-0002295,14:58:11.061275
0.267882,+0000019,-0000016,-0000010,+0000058,-0000090,+0004161,-0000776,+0000482,-0002295,14:58:11.061275
0.268215,+0000019,-0000028,-0000001,+0000058,-0000096,+0004140,-0000770,+0000476,-0002296,14:58:11.061275
0.268548,+0000020,-0000027,-0000018,+0000060,-0000092,+0004155,-0000770,+0000476,-0002296,14:58:11.061275
0.268881,+0000010,-0000024,-0000013,+0000046,-0000076,+0004160,-0000770,+0000476,-0002296,14:58:11.061275
0.269214,+0000010,-0000010,-0000006,+0000059,-0000090,+0004165,-0000786,+0000466,-0002290,14:58:11.061275
0.269547,+0000005,-0000012,+0000000,+0000043,-0000087,+0004133,-0000786,+0000466,-0002290,14:58:11.061275
0.269880,+0000016,-0000021,+0000003,+0000022,-0000079,+0004140,-0000786,+0000466,-0002290,14:58:11.061275
0.270213,+0000022,-0000030,-0000017,+0000039,-0000097,+0004139,-0000790,+0000474,-0002315,14:58:11.061275
0.270546,+0000021,-0000031,-0000008,+0000029,-0000098,+0004150,-0000790,+0000474,-0002315,14:58:11.061275
0.270879,+0000006,-0000037,-0000010,+0000047,-0000099,+0004147,-0000790,+0000474,-0002315,14:58:11.061275
0.271212,+0000008,-0000006,+0000000,+0000065,-0000109,+0004156,-0000790,+0000474,-0002317,14:58:11.061275
0.271545,-0000008,-0000018,+0000000,+0000042,-0000095,+0004155,-0000790,+0000474,-0002317,14:58:11.061275
0.271878,+0000017,-0000029,-0000005,+0000035,-0000068,+0004147,-0000790,+0000474,-0002317,14:58:11.061275
0.272211,+0000020,-0000029,-0000003,+0000052,-0000071,+0004150,-0000780,+0000476,-0002302,14:58:11.061275
0.272544,+0000022,-0000042,-0000015,+0000056,-0000112,+0004145,-0000780,+0000476,-0002302,14:58:11.061275
0.272877,+0000011,-0000019,-0000016,+0000069,-0000092,+0004146,-0000780,+0000476,-0002302,14:58:11.061275
0.273210,-0000017,+0000006,+0000005,+0000057,-0000106,+0004156,-0000786,+0000474,-0002313,14:58:11.061275
0.273543,+0000019,-0000026,-0000015,+0000038,-0000092,+0004144,-0000786,+0000474,-0002313,14:58:11.061275
0.273877,+0000016,-0000029,-0000007,+0000053,-0000092,+0004156,-0000786,+0000474,-0002313,14:58:11.061275
0.274209,+0000022,-0000034,-0000011,+0000054,-0000082,+0004156,-0000768,+0000476,-0002322,14:58:11.061275
0.274544,+0000016,-0000029,-0000014,+0000033,-0000097,+0004134,-0000768,+0000476,-0002322,14:58:11.061275
0.275085,-0000008,+0000013,+0000000,+0000051,-0000094,+0004144,-0000768,+0000476,-0002322,14:58:11.061275
0.275295,+0000014,-0000029,+0000000,+0000051,-0000094,+0004144,-0000758,+0000478,-0002337,14:58:11.061275
0.275544,+0000016,-0000026,-0000013,+0000050,-0000077,+0004139,-0000758,+0000478,-0002337,14:58:11.061275
0.275970,+0000025,-0000028,+0000001,+0000046,-0000088,+0004138,-0000758,+0000478,-0002337,14:58:11.061275
0.276207,+0000025,-0000028,+0000001,+0000046,-0000099,+0004169,-0000772,+0000480,-0002300,14:58:11.061275
0.276541,+0000016,-0000027,-0000005,+0000043,-0000090,+0004154,-0000772,+0000480,-0002300,14:58:11.061275
0.276874,+0000015,-0000021,-0000016,+0000045,-0000102,+0004150,-0000772,+0000480,-0002300,14:58:11.061275
0.277206,+0000004,-0000024,-0000005,+0000050,-0000088,+0004158,-0000778,+0000472,-0002326,14:58:11.061275
0.277539,+0000013,-0000021,+0000001,+0000044,-0000082,+0004144,-0000778,+0000472,-0002326,14:58:11.061275
0.277872,+0000032,-0000040,-0000012,+0000049,-0000099,+0004162,-0000778,+0000472,-0002326,14:58:11.061275
0.278205,+0000020,-0000019,-0000013,+0000037,-0000123,+0004154,-0000774,+0000476,-0002320,14:58:11.061275
0.278538,-0000009,-0000007,-0000005,+0000061,-0000089,+0004158,-0000774,+0000476,-0002320,14:58:11.061275
0.278871,+0000020,-0000020,-0000011,+0000021,-0000092,+0004160,-0000774,+0000476,-0002320,14:58:11.061275
0.279204,-0000003,-0000010,-0000010,+0000057,-0000088,+0004135,-0000770,+0000462,-0002334,14:58:11.061275
0.279537,+0000017,-0000020,-0000013,+0000043,-0000088,+0004174,-0000770,+0000462,-0002334,14:58:11.061275
0.279871,+0000016,-0000032,-0000013,+0000033,-0000090,+0004160,-0000770,+0000462,-0002334,14:58:11.061275
0.280203,+0000011,-0000029,-0000016,+0000027,-0000082,+0004153,-0000790,+0000478,-0002304,14:58:11.061275
0.280536,+0000011,-0000020,-0000012,+0000053,-0000086,+0004148,-0000790,+0000478,-0002304,14:58:11.061275
0.280869,+0000011,-0000008,-0000007,+0000063,-0000096,+0004149,-0000790,+0000478,-0002304,14:58:11.061275
0.281202,+0000006,-0000010,-0000007,+0000058,-0000082,+0004150,-0000780,+0000476,-0002305,14:58:11.061275
0.281535,+0000002,-0000022,-0000008,+0000046,-0000091,+0004141,-0000780,+0000476,-0002305,14:58:11.061275
0.281868,+0000028,-0000047,-0000010,+0000048,-0000089,+0004147,-0000780,+0000476,-0002305,14:58:11.061275
0.282201,+0000003,-0000015,-0000008,+0000059,-0000090,+0004133,-0000772,+0000478,-0002323,14:58:11.061275
0.282534,+0000020,-0000029,-0000018,+0000048,-0000085,+0004155,-0000772,+0000478,-0002323,14:58:11.061275
0.282867,+0000005,-0000022,-0000016,+0000038,-0000096,+0004132,-0000772,+0000478,-0002323,14:58:11.061275
0.283200,+0000011,-0000010,-0000002,+0000054,-0000085,+0004158,-0000782,+0000484,-0002306,14:58:11.061275
0.283533,+0000015,-0000027,-0000008,+0000046,-0000102,+0004152,-0000782,+0000484,-0002306,14:58:11.061275
0.283866,+0000007,-0000032,-0000004,+0000050,-0000099,+0004157,-0000782,+0000484,-0002306,14:58:11.061275
0.284199,+0000022,-0000031,-0000011,+0000059,-0000090,+0004158,-0000766,+0000484,-0002338,14:58:11.061275
0.284532,+0000005,-0000026,-0000015,+0000036,-0000083,+0004162,-0000766,+0000484,-0002338,14:58:11.061275
0.284865,+0000016,-0000002,-0000013,+0000037,-0000091,+0004141,-0000766,+0000484,-0002338,14:58:11.061275
0.285198,-0000006,-0000007,-0000005,+0000035,-0000085,+0004139,-0000762,+0000478,-0002313,14:58:11.061275
0.285531,+0000010,-0000037,-0000013,+0000035,-0000070,+0004156,-0000762,+0000478,-0002313,14:58:11.061275
0.285864,+0000019,-0000037,-0000011,+0000037,-0000072,+0004139,-0000762,+0000478,-0002313,14:58:11.061275
0.286197,+0000014,-0000022,-0000007,+0000051,-0000100,+0004151,-0000768,+0000460,-0002314,14:58:11.061275
0.286530,+0000006,-0000026,-0000013,+0000053,-0000099,+0004144,-0000768,+0000460,-0002314,14:58:11.061275
0.286863,+0000006,-0000013,-0000005,+0000049,-0000084,+0004147,-0000768,+0000460,-0002314,14:58:11.061275
0.287196,+0000000,-0000018,+0000005,+0000051,-0000121,+0004169,-0000782,+0000486,-0002335,14:58:11.061275
0.287529,+0000035,-0000039,-0000021,+0000030,-0000099,+0004160,-0000782,+0000486,-0002335,14:58:11.061275
0.287862,+0000019,-0000035,+0000005,+0000033,-0000080,+0004133,-0000782,+0000486,-0002335,14:58:11.061275
0.288195,+0000036,-0000032,-0000021,+0000056,-0000087,+0004164,-0000788,+0000468,-0002358,14:58:11.061275
0.288528,-0000005,+0000006,-0000007,+0000040,-0000101,+0004152,-0000788,+0000468,-0002358,14:58:11.061275
0.288861,+0000018,-0000012,+0000001,+0000059,-0000107,+0004151,-0000788,+0000468,-0002358,14:58:11.061275
0.289194,+0000030,-0000013,-0000008,+0000049,-0000098,+0004153,-0000784,+0000472,-0002314,14:58:11.061275
0.289527,+0000016,-0000035,+0000000,+0000052,-0000111,+0004160,-0000784,+0000472,-0002314,14:58:11.061275
0.289860,+0000008,-0000038,-0000011,+0000049,-0000098,+0004155,-0000784,+0000472,-0002314,14:58:11.061275
0.290193,+0000021,-0000015,+0000002,+0000022,-0000100,+0004141,-0000778,+0000482,-0002348,14:58:11.061275
0.290526,+0000016,-0000019,-0000022,+0000045,-0000089,+0004142,-0000778,+0000482,-0002348,14:58:11.061275
0.290859,+0000003,-0000010,-0000003,+0000036,-0000082,+0004155,-0000778,+0000482,-0002348,14:58:11.061275
0.291192,+0000000,-0000021,+0000000,+0000052,-0000107,+0004148,-0000784,+0000492,-0002305,14:58:11.061275
0.291530,+0000026,-0000037,-0000008,+0000047,-0000078,+0004153,-0000784,+0000492,-0002305,14:58:11.061275
0.291858,+0000029,-0000018,-0000008,+0000054,-0000094,+0004157,-0000784,+0000492,-0002305,14:58:11.061275
0.292191,+0000013,-0000018,-0000010,+0000051,-0000087,+0004143,-0000786,+0000488,-0002312,14:58:11.061275
0.292524,+0000021,-0000013,-0000010,+0000050,-0000071,+0004132,-0000786,+0000488,-0002312,14:58:11.061275
0.292857,+0000002,-0000010,+0000003,+0000059,-0000078,+0004146,-0000786,+0000488,-0002312,14:58:11.061275
0.293190,+0000011,-0000027,-0000011,+0000054,-0000078,+0004149,-0000788,+0000478,-0002336,14:58:11.061275
0.293523,+0000018,-0000036,-0000015,+0000039,-0000102,+0004168,-0000788,+0000478,-0002336,14:58:11.061275
0.293856,+0000016,-0000029,+0000000,+0000033,-0000106,+0004149,-0000788,+0000478,-0002336,14:58:11.061275
0.294189,+0000016,-0000019,-0000010,+0000054,-0000090,+0004157,-0000776,+0000490,-0002321,14:58:11.061275
0.294522,+0000011,-0000012,-0000005,+0000052,-0000086,+0004159,-0000776,+0000490,-0002321,14:58:11.061275
0.294879,+0000005,-0000012,-0000005,+0000033,-0000100,+0004150,-0000776,+0000490,-0002321,14:58:11.061275
0.295188,+0000032,-0000023,+0000003,+0000045,-0000090,+0004157,-0000778,+0000486,-0002297,14:58:11.061275
0.295521,+0000024,-0000018,-0000013,+0000070,-0000098,+0004147,-0000778,+0000486,-0002297,14:58:11.061275
0.295856,+0000021,-0000040,+0000004,+0000058,-0000091,+0004139,-0000778,+0000486,-0002297,14:58:11.061275
0.296187,+0000008,-0000016,-0000007,+0000054,-0000080,+0004154,-0000766,+0000492,-0002343,14:58:11.061275
0.296520,+0000008,-0000008,-0000016,+0000044,-0000076,+0004132,-0000766,+0000492,-0002343,14:58:11.061275
0.296853,+0000011,-0000023,-0000008,+0000061,-0000078,+0004150,-0000766,+0000492,-0002343,14:58:11.061275
0.297186,+0000019,-0000032,-0000015,+0000027,-0000100,+0004159,-0000776,+0000488,-0002302,14:58:11.061275
0.297519,+0000021,-0000032,-0000007,+0000033,-0000091,+0004139,-0000776,+0000488,-0002302,14:58:11.061275
0.297853,+0000022,-0000021,-0000013,+0000051,-0000086,+0004148,-0000776,+0000488,-0002302,14:58:11.061275
0.298185,-0000001,-0000028,-0000008,+0000053,-0000090,+0004154,-0000782,+0000490,-0002311,14:58:11.061275
0.298518,+0000019,-0000018,+0000000,+0000051,-0000085,+0004139,-0000782,+0000490,-0002311,14:58:11.061275
0.298853,+0000006,-0000007,+0000006,+0000055,-0000093,+0004135,-0000782,+0000490,-0002311,14:58:11.061275
0.299184,+0000014,-0000033,-0000011,+0000060,-0000090,+0004144,-0000760,+0000492,-0002325,14:58:11.061275
0.299517,+0000017,-0000043,-0000015,+0000051,-0000086,+0004154,-0000760,+0000492,-0002325,14:58:11.061275
0.299856,+0000028,-0000024,-0000012,+0000064,-0000086,+0004158,-0000760,+0000492,-0002325,14:58:11.061275
0.300183,+0000011,-0000029,-0000013,+0000035,-0000072,+0004155,-0000770,+0000492,-0002326,14:58:11.061275
0.300516,-0000014,-0000013,+0000009,+0000035,-0000080,+0004145,-0000770,+0000492,-0002326,14:58:11.061275
0.300849,+0000029,-0000026,-0000021,+0000024,-0000086,+0004161,-0000770,+0000492,-0002326,14:58:11.061275
0.301182,+0000007,-0000034,-0000008,+0000030,-0000110,+0004144,-0000766,+0000500,-0002342,14:58:11.061275
0.301515,+0000014,-0000026,-0000008,+0000032,-0000101,+0004162,-0000766,+0000500,-0002342,14:58:11.061275
0.301868,+0000024,-0000039,-0000011,+0000052,-0000090,+0004143,-0000766,+0000500,-0002342,14:58:11.061275
0.302181,+0000030,-0000030,-0000004,+0000058,-0000090,+0004151,-0000758,+0000496,-0002322,14:58:11.061275
0.302514,+0000013,-0000020,-0000011,+0000054,-0000084,+0004148,-0000758,+0000496,-0002322,14:58:11.063275
0.302966,+0000016,-0000023,-0000004,+0000029,-0000093,+0004141,-0000758,+0000496,-0002322,14:58:11.063275
0.303180,+0000024,-0000023,-0000005,+0000029,-0000093,+0004141,-0000776,+0000468,-0002337,14:58:11.063275
0.303783,-0000006,-0000010,-0000011,+0000045,-0000080,+0004166,-0000776,+0000468,-0002337,14:58:11.063275
0.303977,+0000017,-0000010,-0000010,+0000045,-0000080,+0004166,-0000776,+0000468,-0002337,14:58:11.063275
0.304190,-0000004,+0000000,+0000000,+0000047,-0000101,+0004173,-0000790,+0000486,-0002334,14:58:11.063275
0.304513,+0000011,-0000034,+0000001,+0000047,-0000090,+0004171,-0000790,+0000486,-0002334,14:58:11.063275
0.304849,+0000025,-0000035,-0000013,+0000043,-0000097,+0004146,-0000790,+0000486,-0002334,14:58:11.063275
0.305178,+0000017,-0000038,-0000013,+0000043,-0000073,+0004147,-0000768,+0000478,-0002337,14:58:11.063275
0.305512,+0000024,-0000015,+0000006,+0000041,-0000083,+0004149,-0000768,+0000478,-0002337,14:58:11.063275
0.305849,+0000019,-0000029,-0000021,+0000042,-0000084,+0004149,-0000768,+0000478,-0002337,14:58:11.063275
0.306177,-0000004,-0000008,-0000002,+0000038,-0000096,+0004146,-0000766,+0000480,-0002343,14:58:11.063275
0.306511,+0000018,-0000029,-0000021,+0000036,-0000090,+0004148,-0000766,+0000480,-0002343,14:58:11.063275
0.306848,-0000003,-0000010,+0000004,+0000040,-0000088,+0004152,-0000766,+0000480,-0002343,14:58:11.063275
0.307178,+0000008,-0000032,-0000002,+0000059,-0000093,+0004150,-0000758,+0000498,-0002336,14:58:11.063275
0.307510,+0000008,-0000036,-0000018,+0000048,-0000081,+0004149,-0000758,+0000498,-0002336,14:58:11.063275
0.307847,+0000007,-0000023,-0000010,+0000048,-0000099,+0004157,-0000758,+0000498,-0002336,14:58:11.063275
0.308175,+0000029,-0000021,-0000010,+0000035,-0000097,+0004158,-0000762,+0000480,-0002334,14:58:11.063275
0.308508,+0000005,-0000021,+0000000,+0000036,-0000091,+0004169,-0000762,+0000480,-0002334,14:58:11.063275
0.308847,+0000013,-0000024,-0000013,+0000045,-0000089,+0004150,-0000762,+0000480,-0002334,14:58:11.063275
0.309174,+0000020,-0000032,-0000010,+0000055,-0000093,+0004155,-0000774,+0000480,-0002314,14:58:11.063275
0.309507,+0000009,-0000018,-0000016,+0000035,-0000083,+0004172,-0000774,+0000480,-0002314,14:58:11.063275
0.309846,+0000013,-0000016,-0000003,+0000049,-0000079,+0004157,-0000774,+0000480,-0002314,14:58:11.063275
0.310173,+0000013,-0000016,-0000005,+0000039,-0000084,+0004151,-0000786,+0000496,-0002335,14:58:11.063275
0.310506,+0000014,-0000016,-0000008,+0000045,-0000082,+0004152,-0000786,+0000496,-0002335,14:58:11.063275
0.310845,+0000006,-0000029,-0000005,+0000045,-0000118,+0004156,-0000786,+0000496,-0002335,14:58:11.063275
0.311172,+0000016,-0000021,-0000010,+0000052,-0000090,+0004155,-0000786,+0000486,-0002327,14:58:11.063275
0.311505,+0000022,-0000028,-0000013,+0000064,-0000086,+0004148,-0000786,+0000486,-0002327,14:58:11.063275
0.311844,+0000013,-0000015,-0000004,+0000075,-0000107,+0004171,-0000786,+0000486,-0002327,14:58:11.063275
0.312171,+0000019,-0000026,-0000019,+0000054,-0000097,+0004157,-0000768,+0000482,-0002318,14:58:11.063275
0.312504,+0000010,-0000013,-0000002,+0000052,-0000063,+0004153,-0000768,+0000482,-0002318,14:58:11.063275
0.312843,+0000030,-0000031,-0000014,+0000039,-0000092,+0004129,-0000768,+0000482,-0002318,14:58:11.063275
0.313170,+0000021,-0000032,-0000007,+0000041,-0000066,+0004147,-0000762,+0000474,-0002310,14:58:11.063275
0.313503,+0000019,-0000024,-0000010,+0000034,-0000090,+0004141,-0000762,+0000474,-0002310,14:58:11.063275
0.313842,+0000017,-0000021,-0000007,+0000045,-0000082,+0004135,-0000762,+0000474,-0002310,14:58:11.063275
0.314169,+0000005,-0000013,-0000008,+0000053,-0000069,+0004151,-0000780,+0000482,-0002333,14:58:11.063275
0.314502,+0000003,-0000021,-0000016,+0000046,-0000084,+0004155,-0000780,+0000482,-0002333,14:58:11.063275
0.314841,+0000031,-0000029,+0000000,+0000045,-0000089,+0004149,-0000780,+0000482,-0002333,14:58:11.063275
0.315168,+0000011,-0000039,-0000003,+0000041,-0000103,+0004150,-0000768,+0000480,-0002335,14:58:11.063275
0.315501,+0000024,-0000016,-0000025,+0000051,-0000101,+0004149,-0000768,+0000480,-0002335,14:58:11.063275
0.315840,-0000003,-0000005,-0000002,+0000027,-0000101,+0004139,-0000768,+0000480,-0002335,14:58:11.063275
0.316167,+0000000,-0000015,-0000007,+0000033,-0000069,+0004152,-0000778,+0000476,-0002304,14:58:11.063275
0.316500,+0000017,-0000026,-0000008,+0000050,-0000096,+0004147,-0000778,+0000476,-0002304,14:58:11.063275
0.316833,+0000023,-0000032,-0000010,+0000032,-0000087,+0004161,-0000778,+0000476,-0002304,14:58:11.063275
0.317166,+0000029,-0000039,-0000016,+0000065,-0000088,+0004146,-0000784,+0000478,-0002313,14:58:11.063275
0.317499,+0000021,-0000022,-0000018,+0000037,-0000080,+0004145,-0000784,+0000478,-0002313,14:58:11.063275
0.317832,-0000001,-0000005,+0000000,+0000035,-0000086,+0004157,-0000784,+0000478,-0002313,14:58:11.063275
0.318165,+0000008,-0000016,-0000008,+0000055,-0000080,+0004164,-0000772,+0000474,-0002320,14:58:11.063275
0.318498,+0000008,-0000016,+0000000,+0000049,-0000099,+0004164,-0000772,+0000474,-0002320,14:58:11.063275
0.318831,+0000022,-0000031,-0000010,+0000069,-0000103,+0004162,-0000772,+0000474,-0002320,14:58:11.063275
0.319164,+0000019,-0000042,-0000010,+0000035,-0000097,+0004143,-0000778,+0000470,-0002312,14:58:11.063275
0.319497,+0000029,-0000029,-0000010,+0000040,-0000069,+0004139,-0000778,+0000470,-0002312,14:58:11.063275
0.319830,-0000004,-0000007,-0000011,+0000043,-0000085,+0004162,-0000778,+0000470,-0002312,14:58:11.063275
0.320163,+0000009,-0000011,+0000001,+0000057,-0000097,+0004160,-0000774,+0000478,-0002327,14:58:11.063275
0.320496,+0000019,-0000021,-0000013,+0000035,-0000094,+0004144,-0000774,+0000478,-0002327,14:58:11.063275
0.320829,+0000011,-0000028,-0000015,+0000058,-0000094,+0004142,-0000774,+0000478,-0002327,14:58:11.063275
0.321162,+0000027,-0000029,-0000016,+0000046,-0000098,+0004152,-0000774,+0000470,-0002330,14:58:11.063275
0.321495,+0000010,-0000015,+0000006,+0000061,-0000082,+0004157,-0000774,+0000470,-0002330,14:58:11.063275
0.321828,+0000011,-0000019,-0000021,+0000053,-0000081,+0004151,-0000774,+0000470,-0002330,14:58:11.063275
0.322161,+0000002,-0000011,+0000003,+0000037,-0000096,+0004146,-0000768,+0000488,-0002345,14:58:11.063275
0.322494,+0000025,-0000023,-0000004,+0000067,-0000107,+0004162,-0000768,+0000488,-0002345,14:58:11.063275
0.322827,+0000011,-0000039,-0000007,+0000060,-0000097,+0004143,-0000768,+0000488,-0002345,14:58:11.063275
0.323160,+0000029,-0000026,-0000016,+0000041,-0000079,+0004152,-0000780,+0000490,-0002327,14:58:11.063275
0.323493,+0000002,-0000031,-0000013,+0000043,-0000079,+0004141,-0000780,+0000490,-0002327,14:58:11.063275
0.323828,+0000003,-0000008,-0000008,+0000036,-0000068,+0004137,-0000780,+0000490,-0002327,14:58:11.063275
0.324160,+0000003,-0000018,-0000007,+0000041,-0000099,+0004158,-0000774,+0000478,-0002339,14:58:11.063275
0.324496,+0000003,-0000019,+0000000,+0000040,-0000099,+0004145,-0000774,+0000478,-0002339,14:58:11.063275
0.325018,-0000007,-0000024,-0000014,+0000043,-0000088,+0004157,-0000774,+0000478,-0002339,14:58:11.063275
0.325217,-0000007,-0000024,-0000014,+0000043,-0000088,+0004157,-0000770,+0000474,-0002342,14:58:11.063275
0.325493,+0000024,-0000012,+0000001,+0000034,-0000080,+0004158,-0000770,+0000474,-0002342,14:58:11.063275
0.325830,+0000008,-0000024,-0000007,+0000042,-0000087,+0004165,-0000770,+0000474,-0002342,14:58:11.063275
0.326157,+0000015,-0000023,+0000000,+0000057,-0000090,+0004151,-0000776,+0000468,-0002335,14:58:11.063275
0.326491,+0000017,-0000035,-0000013,+0000043,-0000101,+0004142,-0000776,+0000468,-0002335,14:58:11.063275
0.326823,+0000024,-0000032,-0000013,+0000064,-0000084,+0004160,-0000776,+0000468,-0002335,14:58:11.063275
0.327156,+0000016,-0000029,-0000010,+0000036,-0000094,+0004137,-0000782,+0000464,-0002343,14:58:11.063275
0.327489,+0000022,-0000016,-0000005,+0000033,-0000080,+0004154,-0000782,+0000464,-0002343,14:58:11.063275
0.327822,+0000018,+0000006,-0000004,+0000059,-0000099,+0004147,-0000782,+0000464,-0002343,14:58:11.063275
0.328155,+0000008,-0000021,-0000005,+0000048,-0000108,+0004152,-0000756,+0000466,-0002336,14:58:11.063275
0.328537,+0000011,-0000016,-0000006,+0000041,-0000095,+0004144,-0000756,+0000466,-0002336,14:58:11.063275
0.328855,+0000024,-0000030,-0000021,+0000045,-0000074,+0004138,-0000756,+0000466,-0002336,14:58:11.063275
0.329166,+0000008,-0000018,-0000013,+0000042,-0000088,+0004169,-0000762,+0000470,-0002350,14:58:11.063275
0.329492,+0000011,-0000031,-0000008,+0000036,-0000094,+0004145,-0000762,+0000470,-0002350,14:58:11.063275
0.330067,+0000016,-0000023,-0000001,+0000026,-0000098,+0004163,-0000762,+0000470,-0002350,14:58:11.063275
0.330224,+0000016,-0000023,-0000001,+0000026,-0000098,+0004163,-0000762,+0000468,-0002331,14:58:11.063275
0.330487,+0000003,-0000018,-0000019,+0000061,-0000079,+0004154,-0000762,+0000468,-0002331,14:58:11.063275
0.330820,-0000006,+0000000,+0000001,+0000036,-0000093,+0004143,-0000762,+0000468,-0002331,14:58:11.063275
0.331171,+0000010,-0000022,-0000015,+0000044,-0000092,+0004158,-0000782,+0000470,-0002351,14:58:11.063275
0.331487,+0000022,-0000040,-0000012,+0000050,-0000077,+0004126,-0000782,+0000470,-0002351,14:58:11.063275
0.331818,+0000010,-0000013,-0000002,+0000030,-0000089,+0004135,-0000782,+0000470,-0002351,14:58:11.063275
0.332151,+0000016,-0000016,-0000014,+0000040,-0000076,+0004140,-0000762,+0000464,-0002334,14:58:11.063275
0.332486,+0000030,-0000040,-0000007,+0000050,-0000094,+0004164,-0000762,+0000464,-0002334,14:58:11.063275
0.332817,+0000027,-0000029,-0000008,+0000042,-0000090,+0004155,-0000762,+0000464,-0002334,14:58:11.063275
0.333205,+0000021,-0000013,+0000005,+0000054,-0000097,+0004146,-0000764,+0000460,-0002313,14:58:11.063275
0.333486,+0000011,-0000021,-0000010,+0000053,-0000089,+0004160,-0000764,+0000460,-0002313,14:58:11.063275
0.333819,+0000029,-0000039,-0000019,+0000038,-0000083,+0004143,-0000764,+0000460,-0002313,14:58:11.063275
0.334154,+0000013,-0000021,+0000001,+0000045,-0000051,+0004175,-0000786,+0000476,-0002353,14:58:11.063275
0.334482,+0000016,-0000029,-0000006,+0000028,-0000061,+0004152,-0000786,+0000476,-0002353,14:58:11.063275
0.334815,-0000006,-0000018,-0000002,+0000050,-0000084,+0004149,-0000786,+0000476,-0002353,14:58:11.063275
0.335148,+0000021,-0000015,-0000012,+0000070,-0000102,+0004176,-0000790,+0000472,-0002338,14:58:11.063275
0.335481,-0000006,-0000018,-0000008,+0000031,-0000090,+0004156,-0000790,+0000472,-0002338,14:58:11.063275
0.335814,+0000016,-0000024,-0000015,+0000047,-0000059,+0004160,-0000790,+0000472,-0002338,14:58:11.063275
0.336147,-0000006,-0000004,-0000016,+0000044,-0000102,+0004159,-0000768,+0000480,-0002342,14:58:11.063275
0.336480,+0000025,-0000031,+0000005,+0000052,-0000093,+0004160,-0000768,+0000480,-0002342,14:58:11.063275
0.336813,+0000019,-0000032,-0000027,+0000060,-0000071,+0004148,-0000768,+0000480,-0002342,14:58:11.063275
0.337146,+0000016,-0000022,-0000001,+0000065,-0000085,+0004169,-0000768,+0000472,-0002332,14:58:11.063275
0.337479,+0000016,-0000007,-0000005,+0000042,-0000071,+0004176,-0000768,+0000472,-0002332,14:58:11.063275
0.337812,+0000002,-0000012,-0000007,+0000041,-0000073,+0004153,-0000768,+0000472,-0002332,14:58:11.063275
0.338145,+0000013,-0000015,+0000000,+0000056,-0000077,+0004148,-0000772,+0000488,-0002326,14:58:11.063275
0.338478,+0000016,-0000042,-0000010,+0000045,-0000093,+0004156,-0000772,+0000488,-0002326,14:58:11.063275
0.338811,+0000029,-0000037,-0000011,+0000042,-0000089,+0004151,-0000772,+0000488,-0002326,14:58:11.063275
0.339144,+0000008,-0000019,-0000003,+0000050,-0000062,+0004152,-0000776,+0000480,-0002311,14:58:11.063275
0.339477,+0000019,-0000005,-0000011,+0000059,-0000122,+0004148,-0000776,+0000480,-0002311,14:58:11.063275
0.339810,+0000011,-0000008,-0000008,+0000048,-0000105,+0004153,-0000776,+0000480,-0002311,14:58:11.063275
0.340143,+0000012,-0000031,-0000010,+0000068,-0000099,+0004149,-0000778,+0000472,-0002339,14:58:11.063275
0.340476,+0000023,-0000026,-0000012,+0000043,-0000086,+0004172,-0000778,+0000472,-0002339,14:58:11.063275
0.340809,+0000027,-0000048,-0000007,+0000042,-0000111,+0004145,-0000778,+0000472,-0002339,14:58:11.063275
0.341142,+0000005,-0000023,-0000021,+0000043,-0000083,+0004152,-0000784,+0000478,-0002314,14:58:11.063275
0.341475,-0000006,+0000001,+0000006,+0000033,-0000090,+0004160,-0000784,+0000478,-0002314,14:58:11.063275
0.341808,+0000028,-0000023,-0000011,+0000058,-0000084,+0004140,-0000784,+0000478,-0002314,14:58:11.063275
0.342141,+0000016,-0000019,-0000008,+0000058,-0000083,+0004165,-0000780,+0000474,-0002344,14:58:11.063275
0.342474,+0000027,-0000034,-0000007,+0000054,-0000084,+0004165,-0000780,+0000474,-0002344,14:58:11.063275
0.342807,+0000010,-0000029,-0000010,+0000060,-0000090,+0004152,-0000780,+0000474,-0002344,14:58:11.063275
0.343140,+0000002,+0000006,-0000010,+0000073,-0000070,+0004148,-0000776,+0000492,-0002324,14:58:11.063275
0.343473,+0000010,-0000015,+0000000,+0000034,-0000091,+0004145,-0000776,+0000492,-0002324,14:58:11.063275
0.343806,+0000007,-0000024,-0000005,+0000026,-0000092,+0004150,-0000776,+0000492,-0002324,14:58:11.063275
0.344139,+0000016,-0000042,-0000008,+0000048,-0000080,+0004166,-0000778,+0000476,-0002323,14:58:11.063275
0.344472,+0000017,-0000037,-0000002,+0000044,-0000089,+0004154,-0000778,+0000476,-0002323,14:58:11.063275
0.344805,+0000014,-0000019,-0000010,+0000050,-0000091,+0004148,-0000778,+0000476,-0002323,14:58:11.063275
0.345138,-0000004,-0000017,+0000001,+0000048,-0000076,+0004147,-0000768,+0000486,-0002344,14:58:11.063275
0.345471,+0000021,-0000010,-0000010,+0000037,-0000085,+0004144,-0000768,+0000486,-0002344,14:58:11.063275
0.345804,+0000007,-0000024,-0000008,+0000043,-0000085,+0004145,-0000768,+0000486,-0002344,14:58:11.063275
0.346137,+0000016,-0000026,-0000007,+0000048,-0000091,+0004165,-0000784,+0000502,-0002319,14:58:11.063275
0.346470,+0000022,-0000032,-0000013,+0000046,-0000088,+0004151,-0000784,+0000502,-0002319,14:58:11.063275
0.346803,+0000029,-0000018,-0000016,+0000050,-0000089,+0004152,-0000784,+0000502,-0002319,14:58:11.063275
0.347136,-0000008,-0000007,-0000005,+0000036,-0000084,+0004151,-0000772,+0000492,-0002345,14:58:11.063275
0.347469,+0000017,-0000017,-0000003,+0000063,-0000098,+0004135,-0000772,+0000492,-0002345,14:58:11.063275
0.347802,+0000014,-0000026,-0000013,+0000053,-0000089,+0004132,-0000772,+0000492,-0002345,14:58:11.063275
0.348135,+0000014,-0000034,-0000008,+0000044,-0000083,+0004144,-0000770,+0000478,-0002364,14:58:11.063275
0.348468,+0000021,-0000025,+0000001,+0000049,-0000084,+0004160,-0000770,+0000478,-0002364,14:58:11.063275
0.348801,+0000007,-0000023,-0000027,+0000038,-0000075,+0004160,-0000770,+0000478,-0002364,14:58:11.064275
0.349134,+0000009,-0000032,-0000003,+0000043,-0000085,+0004182,-0000786,+0000476,-0002337,14:58:11.064275
0.349467,+0000002,-0000007,+0000003,+0000041,-0000088,+0004156,-0000786,+0000476,-0002337,14:58:11.064275
0.349800,+0000018,-0000028,-0000002,+0000047,-0000106,+0004158,-0000786,+0000476,-0002337,14:58:11.064275
0.350133,+0000026,-0000034,-0000003,+0000036,-0000090,+0004141,-0000778,+0000476,-0002327,14:58:11.064275
0.350466,+0000007,-0000026,-0000015,+0000041,-0000078,+0004145,-0000778,+0000476,-0002327,14:58:11.064275
0.350799,+0000021,-0000030,-0000015,+0000026,-0000084,+0004144,-0000778,+0000476,-0002327,14:58:11.064275
0.351132,+0000011,-0000010,-0000007,+0000050,-0000095,+0004163,-0000790,+0000480,-0002336,14:58:11.064275
0.351465,+0000000,-0000015,-0000008,+0000065,-0000074,+0004160,-0000790,+0000480,-0002336,14:58:11.064275
0.351798,+0000008,-0000012,+0000003,+0000054,-0000083,+0004137,-0000790,+0000480,-0002336,14:58:11.064275
0.352131,+0000013,-0000029,-0000003,+0000046,-0000099,+0004158,-0000778,+0000468,-0002314,14:58:11.064275
0.352464,+0000019,-0000030,-0000003,+0000052,-0000079,+0004160,-0000778,+0000468,-0002314,14:58:11.064275
0.352797,+0000005,-0000018,-0000019,+0000051,-0000088,+0004151,-0000778,+0000468,-0002314,14:58:11.064275
0.353130,+0000010,-0000016,-0000010,+0000043,-0000110,+0004148,-0000778,+0000476,-0002313,14:58:11.064275
0.353463,+0000002,+0000000,-0000005,+0000053,-0000113,+0004143,-0000778,+0000476,-0002313,14:58:11.064275
0.353796,+0000022,-0000032,-0000013,+0000060,-0000106,+0004151,-0000778,+0000476,-0002313,14:58:11.064275
0.354129,+0000018,-0000023,-0000010,+0000054,-0000098,+0004141,-0000794,+0000476,-0002314,14:58:11.064275
0.354462,+0000016,-0000037,-0000010,+0000042,-0000109,+0004154,-0000794,+0000476,-0002314,14:58:11.064275
0.354816,+0000011,-0000026,-0000011,+0000050,-0000082,+0004141,-0000794,+0000476,-0002314,14:58:11.064275
0.355128,+0000010,-0000024,-0000008,+0000047,-0000077,+0004151,-0000766,+0000454,-0002313,14:58:11.064275
0.355461,+0000016,-0000019,-0000002,+0000047,-0000097,+0004145,-0000766,+0000454,-0002313,14:58:11.064275
0.355794,+0000024,-0000045,-0000013,+0000038,-0000092,+0004142,-0000766,+0000454,-0002313,14:58:11.064275
0.356127,+0000017,-0000036,-0000010,+0000071,-0000074,+0004142,-0000778,+0000472,-0002302,14:58:11.064275
0.356460,+0000025,-0000037,-0000013,+0000059,-0000079,+0004138,-0000778,+0000472,-0002302,14:58:11.064275
0.356793,-0000003,+0000003,-0000002,+0000045,-0000091,+0004148,-0000778,+0000472,-0002302,14:58:11.064275
0.357126,+0000004,-0000007,-0000005,+0000056,-0000093,+0004145,-0000770,+0000480,-0002306,14:58:11.064275
0.357459,+0000023,-0000023,-0000007,+0000058,-0000109,+0004178,-0000770,+0000480,-0002306,14:58:11.064275
0.357792,+0000021,-0000037,-0000005,+0000051,-0000076,+0004154,-0000770,+0000480,-0002306,14:58:11.064275
0.358125,+0000026,-0000037,-0000016,+0000046,-0000100,+0004138,-0000792,+0000472,-0002312,14:58:11.064275
0.358458,+0000019,-0000012,-0000016,+0000054,-0000094,+0004163,-0000792,+0000472,-0002312,14:58:11.064275
0.358791,+0000007,-0000010,-0000008,+0000054,-0000083,+0004137,-0000792,+0000472,-0002312,14:58:11.064275
0.359124,+0000016,-0000021,-0000002,+0000053,-0000081,+0004140,-0000788,+0000478,-0002318,14:58:11.064275
0.359457,+0000004,-0000023,-0000005,+0000038,-0000078,+0004173,-0000788,+0000478,-0002318,14:58:11.064275
0.359790,+0000024,-0000023,-0000001,+0000048,-0000107,+0004144,-0000788,+0000478,-0002318,14:58:11.064275
0.360123,+0000014,-0000021,-0000012,+0000055,-0000092,+0004168,-0000774,+0000468,-0002349,14:58:11.064275
0.360456,+0000012,-0000019,-0000012,+0000046,-0000075,+0004166,-0000774,+0000468,-0002349,14:58:11.064275
0.360789,+0000005,-0000021,-0000001,+0000035,-0000079,+0004161,-0000774,+0000468,-0002349,14:58:11.064275
0.361122,+0000003,-0000010,-0000013,+0000043,-0000074,+0004164,-0000772,+0000474,-0002326,14:58:11.064275
0.361455,+0000025,-0000019,-0000013,+0000042,-0000081,+0004144,-0000772,+0000474,-0002326,14:58:11.064275
0.361788,+0000018,-0000038,-0000011,+0000041,-0000090,+0004141,-0000772,+0000474,-0002326,14:58:11.064275
0.362121,+0000013,-0000024,-0000005,+0000059,-0000091,+0004169,-0000778,+0000460,-0002314,14:58:11.064275
0.362467,+0000011,-0000024,-0000011,+0000046,-0000092,+0004151,-0000778,+0000460,-0002314,14:58:11.064275
0.362787,+0000008,-0000011,-0000008,+0000047,-0000100,+0004162,-0000778,+0000460,-0002314,14:58:11.064275
0.363120,+0000013,-0000027,-0000013,+0000040,-0000078,+0004148,-0000780,+0000472,-0002292,14:58:11.064275
0.363466,+0000008,-0000023,-0000008,+0000050,-0000095,+0004160,-0000780,+0000472,-0002292,14:58:11.064275
0.363786,+0000029,-0000027,-0000017,+0000041,-0000087,+0004152,-0000780,+0000472,-0002292,14:58:11.064275
0.364119,-0000011,-0000027,-0000005,+0000053,-0000084,+0004164,-0000772,+0000464,-0002325,14:58:11.064275
0.364465,+0000014,-0000029,-0000011,+0000048,-0000101,+0004164,-0000772,+0000464,-0002325,14:58:11.064275
0.364785,+0000005,-0000021,-0000012,+0000051,-0000093,+0004145,-0000772,+0000464,-0002325,14:58:11.064275
0.365118,+0000016,-0000018,-0000008,+0000052,-0000074,+0004140,-0000770,+0000474,-0002338,14:58:11.064275
0.365464,+0000010,-0000002,+0000004,+0000061,-0000095,+0004144,-0000770,+0000474,-0002338,14:58:11.064275
0.365784,+0000030,-0000039,-0000016,+0000058,-0000098,+0004152,-0000770,+0000474,-0002338,14:58:11.064275
0.366117,+0000007,-0000015,-0000007,+0000037,-0000098,+0004163,-0000760,+0000470,-0002328,14:58:11.064275
0.366463,+0000025,-0000024,-0000005,+0000046,-0000095,+0004147,-0000760,+0000470,-0002328,14:58:11.064275
0.366783,+0000003,-0000029,-0000005,+0000053,-0000090,+0004151,-0000760,+0000470,-0002328,14:58:11.064275
0.367116,+0000011,-0000016,-0000013,+0000037,-0000095,+0004169,-0000778,+0000468,-0002332,14:58:11.064275
0.367462,+0000014,-0000033,-0000003,+0000040,-0000091,+0004145,-0000778,+0000468,-0002332,14:58:11.064275
0.367782,+0000016,-0000034,-0000010,+0000058,-0000098,+0004139,-0000778,+0000468,-0002332,14:58:11.064275
0.368115,+0000013,-0000021,-0000011,+0000040,-0000090,+0004151,-0000780,+0000470,-0002315,14:58:11.064275
0.368451,+0000021,-0000034,-0000008,+0000063,-0000083,+0004171,-0000780,+0000470,-0002315,14:58:11.064275
0.368781,-0000001,-0000003,-0000002,+0000045,-0000084,+0004165,-0000780,+0000470,-0002315,14:58:11.064275
0.369114,+0000014,-0000018,-0000002,+0000043,-0000082,+0004158,-0000776,+0000482,-0002318,14:58:11.064275
0.369447,+0000019,-0000034,-0000010,+0000038,-0000105,+0004161,-0000776,+0000482,-0002318,14:58:11.064275
0.369780,+0000024,-0000040,-0000013,+0000066,-0000085,+0004151,-0000776,+0000482,-0002318,14:58:11.064275
0.370113,+0000017,-0000021,-0000005,+0000037,-0000097,+0004150,-0000784,+0000478,-0002320,14:58:11.064275
0.370446,-0000003,-0000003,+0000002,+0000061,-0000100,+0004148,-0000784,+0000478,-0002320,14:58:11.064275
0.370779,+0000008,-0000005,-0000013,+0000044,-0000094,+0004162,-0000784,+0000478,-0002320,14:58:11.064275
0.371112,+0000013,-0000026,-0000007,+0000040,-0000099,+0004144,-0000786,+0000486,-0002304,14:58:11.064275
0.371445,+0000011,-0000027,-0000011,+0000045,-0000098,+0004154,-0000786,+0000486,-0002304,14:58:11.064275
0.371778,+0000027,-0000034,-0000003,+0000037,-0000097,+0004170,-0000786,+0000486,-0002304,14:58:11.064275
0.372111,+0000011,-0000010,-0000015,+0000038,-0000085,+0004175,-0000786,+0000484,-0002313,14:58:11.064275
0.372444,-0000003,-0000015,+0000003,+0000051,-0000097,+0004145,-0000786,+0000484,-0002313,14:58:11.064275
0.372777,+0000008,-0000013,-0000013,+0000055,-0000089,+0004149,-0000786,+0000484,-0002313,14:58:11.064275
0.373110,+0000003,-0000018,-0000013,+0000048,-0000109,+0004145,-0000774,+0000470,-0002311,14:58:11.064275
0.373443,+0000047,-0000035,+0000003,+0000049,-0000097,+0004157,-0000774,+0000470,-0002311,14:58:11.064275
0.373776,+0000020,-0000024,-0000005,+0000047,-0000105,+0004156,-0000774,+0000470,-0002311,14:58:11.064275
0.374109,+0000005,-0000012,-0000003,+0000039,-0000093,+0004159,-0000792,+0000472,-0002329,14:58:11.064275
0.374446,+0000008,-0000012,-0000006,+0000071,-0000092,+0004154,-0000792,+0000472,-0002329,14:58:11.064275
0.375097,+0000013,-0000030,+0000001,+0000031,-0000108,+0004153,-0000792,+0000472,-0002329,14:58:11.064275
0.375319,+0000014,-0000015,+0000001,+0000031,-0000108,+0004153,-0000772,+0000498,-0002322,14:58:11.064275
0.375552,+0000009,-0000029,-0000015,+0000060,-0000096,+0004154,-0000772,+0000498,-0002322,14:58:11.064275
0.375940,+0000010,-0000014,+0000003,+0000053,-0000088,+0004165,-0000772,+0000498,-0002322,14:58:11.064275
0.376122,+0000008,-0000010,-0000015,+0000053,-0000088,+0004165,-0000778,+0000488,-0002314,14:58:11.064275
0.376440,+0000005,-0000021,-0000008,+0000037,-0000101,+0004155,-0000778,+0000488,-0002314,14:58:11.064275
