===BEGIN_METADATA===
"This CSV contains gyroscope, accelerometer, and magnetometer data synced with the test named below."
Test Name: 2026-07-07_145612_01,yyyy-mm-dd_hhmmss_{probe#/nano_id}
Calibrations: (not implemented yet)
===END_METADATA===
===BEGIN_DATA===
Time (sec),Gyro X,Gyro Y,Gyro Z,Accel X,Accel Y,Accel Z,Mag X,Mag Y,Mag Z,Processed_Time
0.000090,-0000003,+0000003,+0000006,+0000042,-0000084,+0004152,-0000732,+0000532,-0002465,14:56:14.942380
0.000423,-0000003,-0000010,-0000005,+0000074,-0000077,+0004149,-0000842,+0000432,-0002299,14:56:14.942380
0.000755,+0000011,-0000016,-0000008,+0000044,-0000106,+0004139,-0000842,+0000432,-0002299,14:56:14.943447
0.001088,+0000014,-0000032,-0000002,+0000044,-0000087,+0004164,-0000842,+0000432,-0002299,14:56:14.943447
0.001421,+0000011,-0000031,-0000018,+0000029,-0000098,+0004151,-0000844,+0000408,-0002276,14:56:14.943447
0.001754,+0000007,-0000013,-0000002,+0000057,-0000083,+0004127,-0000844,+0000408,-0002276,14:56:14.943447
0.002087,+0000014,-0000018,-0000008,+0000050,-0000099,+0004143,-0000844,+0000408,-0002276,14:56:14.943447
0.002420,+0000006,+0000001,-0000016,+0000024,-0000115,+0004159,-0000822,+0000416,-0002286,14:56:14.943447
0.002753,+0000021,-0000029,-0000006,+0000031,-0000087,+0004130,-0000822,+0000416,-0002286,14:56:14.943447
0.003086,+0000024,-0000040,-0000005,+0000040,-0000083,+0004146,-0000822,+0000416,-0002286,14:56:14.943447
0.003419,+0000018,-0000027,-0000011,+0000029,-0000102,+0004157,-0000826,+0000414,-0002304,14:56:14.943447
0.003752,+0000006,-0000024,-0000016,+0000040,-0000092,+0004154,-0000826,+0000414,-0002304,14:56:14.943447
0.004085,+0000008,-0000011,-0000005,+0000047,-0000111,+0004144,-0000826,+0000414,-0002304,14:56:14.943447
0.004418,+0000005,-0000018,-0000005,+0000059,-0000101,+0004147,-0000826,+0000410,-0002294,14:56:14.943447
0.004751,+0000013,-0000034,-0000010,+0000034,-0000077,+0004146,-0000826,+0000410,-0002294,14:56:14.943447
0.005084,+0000028,-0000040,-0000015,+0000050,-0000077,+0004145,-0000826,+0000410,-0002294,14:56:14.943447
0.005417,+0000013,-0000023,-0000011,+0000029,-0000094,+0004143,-0000818,+0000412,-0002275,14:56:14.943447
0.005750,+0000002,-0000010,-0000008,+0000038,-0000097,+0004142,-0000818,+0000412,-0002275,14:56:14.943447
0.006083,-0000017,+0000005,+0000006,+0000049,-0000131,+0004151,-0000818,+0000412,-0002275,14:56:14.943447
0.006416,+0000018,-0000029,-0000015,+0000046,-0000091,+0004164,-0000826,+0000410,-0002278,14:56:14.943447
0.006749,+0000024,-0000037,-0000010,+0000046,-0000089,+0004157,-0000826,+0000410,-0002278,14:56:14.943447
0.007082,+0000019,-0000024,-0000006,+0000033,-0000092,+0004133,-0000826,+0000410,-0002278,14:56:14.943447
0.007415,+0000032,-0000045,-0000019,+0000031,-0000103,+0004150,-0000830,+0000420,-0002283,14:56:14.943447
0.007748,+0000002,+0000004,-0000010,+0000043,-0000100,+0004147,-0000830,+0000420,-0002283,14:56:14.943447
0.008081,+0000010,-0000024,-0000010,+0000046,-0000093,+0004153,-0000830,+0000420,-0002283,14:56:14.943447
0.008414,+0000013,-0000024,+0000006,+0000050,-0000085,+0004154,-0000814,+0000424,-0002260,14:56:14.943447
0.008747,+0000018,-0000048,-0000015,+0000045,-0000080,+0004166,-0000814,+0000424,-0002260,14:56:14.943447
0.009080,+0000028,-0000034,-0000011,+0000044,-0000101,+0004169,-0000814,+0000424,-0002260,14:56:14.943447
0.009413,+0000000,-0000015,-0000007,+0000049,-0000092,+0004147,-0000824,+0000402,-0002296,14:56:14.943447
0.009746,+0000014,-0000015,-0000011,+0000023,-0000104,+0004155,-0000824,+0000402,-0002296,14:56:14.988999
0.010081,+0000005,-0000022,-0000004,+0000042,-0000109,+0004161,-0000824,+0000402,-0002296,14:56:14.988999
0.010415,+0000011,-0000008,-0000010,+0000037,-0000104,+0004161,-0000846,+0000402,-0002268,14:56:14.988999
0.011115,+0000006,-0000014,+0000000,+0000045,-0000092,+0004164,-0000846,+0000402,-0002268,14:56:14.988999
0.011411,+0000005,-0000012,-0000010,+0000037,-0000088,+0004163,-0000846,+0000402,-0002268,14:56:14.988999
0.011745,+0000010,-0000012,-0000002,+0000035,-0000089,+0004154,-0000824,+0000420,-0002288,14:56:14.988999
0.012079,+0000013,-0000029,-0000002,+0000046,-0000095,+0004160,-0000824,+0000420,-0002288,14:56:14.988999
0.012411,+0000022,-0000026,-0000013,+0000051,-0000121,+0004146,-0000824,+0000420,-0002288,14:56:14.988999
0.012744,+0000026,-0000027,+0000000,+0000052,-0000090,+0004144,-0000848,+0000418,-0002268,14:56:14.988999
0.013077,+0000032,-0000043,-0000016,+0000048,-0000094,+0004142,-0000848,+0000418,-0002268,14:56:14.988999
0.013411,+0000003,+0000000,-0000005,+0000053,-0000101,+0004167,-0000848,+0000418,-0002268,14:56:14.988999
0.013742,+0000013,-0000022,-0000008,+0000062,-0000079,+0004155,-0000832,+0000406,-0002275,14:56:14.988999
0.014077,+0000003,-0000008,+0000002,+0000039,-0000076,+0004135,-0000832,+0000406,-0002275,14:56:14.988999
0.014408,+0000016,-0000040,-0000007,+0000064,-0000095,+0004142,-0000832,+0000406,-0002275,14:56:14.988999
0.014742,+0000021,-0000028,-0000016,+0000044,-0000096,+0004164,-0000836,+0000402,-0002269,14:56:14.988999
0.015074,-0000001,-0000016,+0000001,+0000042,-0000105,+0004168,-0000836,+0000402,-0002269,14:56:14.988999
0.015409,+0000021,-0000022,-0000011,+0000051,-0000071,+0004159,-0000836,+0000402,-0002269,14:56:14.988999
0.015740,+0000007,-0000008,-0000011,+0000037,-0000091,+0004183,-0000832,+0000412,-0002291,14:56:14.988999
0.016073,+0000017,-0000028,-0000005,+0000034,-0000101,+0004181,-0000832,+0000412,-0002291,14:56:14.988999
0.016406,+0000024,-0000034,+0000000,+0000052,-0000085,+0004163,-0000832,+0000412,-0002291,14:56:14.988999
0.016739,+0000021,-0000045,-0000016,+0000041,-0000105,+0004162,-0000844,+0000410,-0002279,14:56:14.988999
0.017072,+0000013,-0000023,-0000006,+0000027,-0000108,+0004132,-0000844,+0000410,-0002279,14:56:14.988999
0.017405,+0000007,-0000010,-0000010,+0000058,-0000106,+0004146,-0000844,+0000410,-0002279,14:56:14.988999
0.017738,+0000022,-0000021,-0000011,+0000050,-0000091,+0004155,-0000828,+0000426,-0002278,14:56:14.988999
0.018071,+0000016,-0000017,+0000003,+0000040,-0000091,+0004157,-0000828,+0000426,-0002278,14:56:14.988999
0.018404,+0000024,-0000048,-0000013,+0000049,-0000090,+0004155,-0000828,+0000426,-0002278,14:56:14.988999
0.018737,+0000019,-0000032,-0000010,+0000047,-0000103,+0004158,-0000816,+0000418,-0002284,14:56:14.988999
0.019070,+0000022,-0000022,-0000011,+0000037,-0000097,+0004146,-0000816,+0000418,-0002284,14:56:14.988999
0.019403,+0000000,-0000015,-0000015,+0000048,-0000107,+0004141,-0000816,+0000418,-0002284,14:56:14.988999
0.019736,+0000008,-0000018,-0000021,+0000050,-0000086,+0004134,-0000832,+0000410,-0002270,14:56:14.988999
0.020069,+0000022,-0000024,+0000006,+0000045,-0000070,+0004175,-0000832,+0000410,-0002270,14:56:14.989996
0.020402,+0000029,-0000035,-0000005,+0000035,-0000107,+0004154,-0000832,+0000410,-0002270,14:56:14.989996
0.020735,+0000015,-0000037,-0000015,+0000039,-0000098,+0004136,-0000844,+0000408,-0002258,14:56:14.989996
0.021068,+0000019,-0000016,-0000007,+0000042,-0000084,+0004132,-0000844,+0000408,-0002258,14:56:14.989996
0.021401,+0000013,+0000006,-0000005,+0000029,-0000110,+0004154,-0000844,+0000408,-0002258,14:56:14.989996
0.021734,+0000002,-0000021,-0000002,+0000045,-0000101,+0004134,-0000836,+0000432,-0002250,14:56:14.989996
0.022067,+0000011,-0000034,-0000016,+0000049,-0000122,+0004158,-0000836,+0000432,-0002250,14:56:14.989996
0.022400,+0000024,-0000024,+0000003,+0000037,-0000097,+0004156,-0000836,+0000432,-0002250,14:56:14.989996
0.022733,+0000025,-0000034,-0000015,+0000048,-0000091,+0004164,-0000846,+0000402,-0002272,14:56:14.989996
0.023066,+0000024,-0000007,-0000008,+0000042,-0000091,+0004163,-0000846,+0000402,-0002272,14:56:14.989996
0.023399,-0000011,-0000010,-0000003,+0000046,-0000091,+0004150,-0000846,+0000402,-0002272,14:56:14.989996
0.023732,+0000023,-0000020,-0000008,+0000057,-0000098,+0004168,-0000824,+0000424,-0002291,14:56:14.989996
0.024065,+0000010,-0000029,-0000014,+0000040,-0000106,+0004169,-0000824,+0000424,-0002291,14:56:14.989996
0.024398,+0000032,-0000048,-0000011,+0000055,-0000086,+0004157,-0000824,+0000424,-0002291,14:56:14.989996
0.024731,+0000019,-0000023,-0000023,+0000031,-0000092,+0004160,-0000838,+0000406,-0002295,14:56:14.990998
0.025064,-0000006,-0000008,+0000011,+0000044,-0000095,+0004134,-0000838,+0000406,-0002295,14:56:14.990998
0.025397,+0000022,-0000020,-0000015,+0000050,-0000082,+0004152,-0000838,+0000406,-0002295,14:56:14.990998
0.025730,+0000013,-0000019,-0000015,+0000042,-0000094,+0004156,-0000838,+0000420,-0002265,14:56:14.990998
0.026063,+0000005,-0000026,+0000000,+0000036,-0000083,+0004162,-0000838,+0000420,-0002265,14:56:14.990998
0.026396,+0000031,-0000036,+0000001,+0000030,-0000095,+0004151,-0000838,+0000420,-0002265,14:56:14.990998
0.026729,+0000011,-0000029,-0000015,+0000053,-0000084,+0004165,-0000826,+0000412,-0002281,14:56:14.990998
0.027062,+0000010,-0000002,-0000008,+0000030,-0000102,+0004166,-0000826,+0000412,-0002281,14:56:14.990998
0.027395,+0000007,-0000012,-0000002,+0000041,-0000100,+0004148,-0000826,+0000412,-0002281,14:56:14.990998
0.027728,+0000011,-0000018,-0000018,+0000041,-0000096,+0004159,-0000840,+0000428,-0002292,14:56:14.990998
0.028061,+0000017,-0000035,-0000013,+0000045,-0000107,+0004166,-0000840,+0000428,-0002292,14:56:14.990998
0.028394,+0000031,-0000032,-0000007,+0000046,-0000089,+0004152,-0000840,+0000428,-0002292,14:56:14.990998
0.028727,+0000009,-0000032,-0000003,+0000032,-0000083,+0004163,-0000836,+0000430,-0002292,14:56:14.990998
0.029060,+0000013,-0000013,-0000002,+0000049,-0000074,+0004149,-0000836,+0000430,-0002292,14:56:14.990998
0.029393,+0000000,-0000016,-0000007,+0000036,-0000095,+0004137,-0000836,+0000430,-0002292,14:56:14.990998
0.029726,+0000011,-0000015,+0000003,+0000044,-0000089,+0004135,-0000840,+0000416,-0002294,14:56:14.990998
0.030059,+0000016,-0000045,-0000024,+0000048,-0000108,+0004147,-0000840,+0000416,-0002294,14:56:14.990998
0.030392,+0000027,-0000026,+0000008,+0000053,-0000096,+0004153,-0000840,+0000416,-0002294,14:56:14.990998
0.030725,+0000011,-0000026,-0000018,+0000040,-0000078,+0004139,-0000840,+0000402,-0002281,14:56:14.990998
0.031058,+0000002,-0000016,+0000000,+0000047,-0000093,+0004128,-0000840,+0000402,-0002281,14:56:14.990998
0.031391,+0000027,-0000010,-0000012,+0000069,-0000100,+0004160,-0000840,+0000402,-0002281,14:56:14.990998
0.031724,+0000007,-0000015,-0000010,+0000052,-0000083,+0004142,-0000846,+0000426,-0002313,14:56:14.990998
0.032057,+0000022,-0000045,-0000013,+0000046,-0000099,+0004158,-0000846,+0000426,-0002313,14:56:14.990998
0.032390,+0000033,-0000031,-0000011,+0000051,-0000099,+0004150,-0000846,+0000426,-0002313,14:56:14.990998
0.032723,+0000017,-0000023,-0000013,+0000039,-0000107,+0004139,-0000830,+0000420,-0002300,14:56:14.990998
0.033056,+0000000,-0000016,-0000004,+0000050,-0000099,+0004150,-0000830,+0000420,-0002300,14:56:14.990998
0.033389,+0000003,-0000013,-0000014,+0000051,-0000074,+0004145,-0000830,+0000420,-0002300,14:56:14.990998
0.033722,+0000019,-0000031,+0000006,+0000045,-0000102,+0004150,-0000828,+0000410,-0002287,14:56:14.990998
0.034055,+0000027,-0000026,-0000008,+0000048,-0000078,+0004163,-0000828,+0000410,-0002287,14:56:14.990998
0.034388,+0000016,-0000042,-0000016,+0000027,-0000105,+0004168,-0000828,+0000410,-0002287,14:56:14.990998
0.034721,+0000021,-0000020,-0000002,+0000043,-0000102,+0004155,-0000846,+0000412,-0002318,14:56:14.990998
0.035054,-0000006,-0000011,+0000001,+0000050,-0000099,+0004142,-0000846,+0000412,-0002318,14:56:14.990998
0.035387,+0000003,+0000005,-0000008,+0000060,-0000076,+0004144,-0000846,+0000412,-0002318,14:56:14.990998
0.035720,+0000019,-0000024,-0000021,+0000044,-0000097,+0004143,-0000828,+0000406,-0002295,14:56:14.990998
0.036053,+0000006,-0000034,+0000006,+0000040,-0000100,+0004146,-0000828,+0000406,-0002295,14:56:14.990998
0.036386,+0000019,-0000047,-0000016,+0000048,-0000092,+0004173,-0000828,+0000406,-0002295,14:56:14.990998
0.036719,+0000013,-0000031,-0000015,+0000038,-0000108,+0004140,-0000850,+0000396,-0002303,14:56:14.990998
0.037052,+0000007,-0000006,+0000008,+0000048,-0000087,+0004160,-0000850,+0000396,-0002303,14:56:14.990998
0.037385,+0000019,-0000015,-0000016,+0000042,-0000090,+0004157,-0000850,+0000396,-0002303,14:56:14.990998
0.037718,+0000013,-0000034,-0000012,+0000060,-0000097,+0004141,-0000856,+0000428,-0002300,14:56:14.990998
0.038051,+0000019,-0000042,-0000008,+0000040,-0000118,+0004150,-0000856,+0000428,-0002300,14:56:14.990998
0.038384,+0000016,-0000034,-0000025,+0000018,-0000096,+0004132,-0000856,+0000428,-0002300,14:56:14.990998
0.038717,-0000009,-0000007,+0000006,+0000040,-0000105,+0004156,-0000858,+0000424,-0002292,14:56:14.990998
0.039050,+0000017,-0000015,-0000016,+0000017,-0000084,+0004145,-0000858,+0000424,-0002292,14:56:14.990998
0.039383,+0000011,-0000012,+0000002,+0000044,-0000088,+0004135,-0000858,+0000424,-0002292,14:56:14.990998
0.039716,+0000005,-0000034,-0000005,+0000042,-0000103,+0004157,-0000858,+0000422,-0002264,14:56:14.990998
0.040049,+0000032,-0000031,-0000015,+0000030,-0000101,+0004154,-0000858,+0000422,-0002264,14:56:14.990998
0.040382,+0000008,-0000019,-0000013,+0000052,-0000097,+0004159,-0000858,+0000422,-0002264,14:56:14.990998
0.040716,+0000019,-0000008,-0000010,+0000037,-0000092,+0004158,-0000838,+0000420,-0002285,14:56:15.024060
0.041050,+0000015,-0000024,-0000020,+0000032,-0000094,+0004167,-0000838,+0000420,-0002285,14:56:15.024060
0.041387,+0000015,-0000007,+0000003,+0000024,-0000107,+0004147,-0000838,+0000420,-0002285,14:56:15.024060
0.041903,+0000010,-0000016,-0000011,+0000037,-0000103,+0004172,-0000844,+0000404,-0002285,14:56:15.024060
0.042185,+0000011,-0000021,-0000002,+0000044,-0000101,+0004172,-0000844,+0000404,-0002285,14:56:15.024060
0.042556,+0000032,-0000048,-0000019,+0000037,-0000087,+0004144,-0000844,+0000404,-0002285,14:56:15.024060
0.042735,+0000032,-0000048,-0000019,+0000037,-0000087,+0004144,-0000846,+0000416,-0002314,14:56:15.024060
0.043047,+0000010,-0000010,+0000003,+0000035,-0000099,+0004164,-0000846,+0000416,-0002314,14:56:15.024060
0.043380,+0000016,-0000024,-0000013,+0000044,-0000079,+0004152,-0000846,+0000416,-0002314,14:56:15.024060
0.043712,+0000019,-0000058,+0000001,+0000059,-0000087,+0004147,-0000830,+0000414,-0002258,14:56:15.024060
0.044045,+0000019,-0000018,-0000011,+0000039,-0000087,+0004145,-0000830,+0000414,-0002258,14:56:15.024060
0.044378,+0000018,-0000039,-0000025,+0000033,-0000099,+0004155,-0000830,+0000414,-0002258,14:56:15.024060
0.044711,+0000014,-0000007,+0000011,+0000035,-0000106,+0004160,-0000852,+0000416,-0002296,14:56:15.024060
0.045044,+0000016,-0000010,-0000022,+0000025,-0000117,+0004132,-0000852,+0000416,-0002296,14:56:15.024060
0.045377,+0000014,-0000013,-0000021,+0000041,-0000091,+0004148,-0000852,+0000416,-0002296,14:56:15.024060
0.045710,+0000023,-0000042,-0000002,+0000057,-0000094,+0004151,-0000822,+0000424,-0002276,14:56:15.024060
0.046043,+0000019,-0000026,-0000013,+0000062,-0000082,+0004139,-0000822,+0000424,-0002276,14:56:15.024060
0.046376,+0000021,-0000028,-0000003,+0000031,-0000104,+0004132,-0000822,+0000424,-0002276,14:56:15.024060
0.046709,+0000016,-0000028,-0000014,+0000033,-0000101,+0004136,-0000836,+0000416,-0002280,14:56:15.024060
0.047042,+0000005,-0000011,-0000002,+0000040,-0000111,+0004168,-0000836,+0000416,-0002280,14:56:15.024060
0.047375,+0000010,-0000024,-0000011,+0000051,-0000091,+0004159,-0000836,+0000416,-0002280,14:56:15.024060
0.047708,+0000021,-0000036,-0000010,+0000039,-0000097,+0004161,-0000846,+0000428,-0002285,14:56:15.024060
0.048041,+0000016,-0000039,-0000013,+0000041,-0000087,+0004164,-0000846,+0000428,-0002285,14:56:15.024060
0.048374,+0000028,-0000016,-0000026,+0000046,-0000085,+0004156,-0000846,+0000428,-0002285,14:56:15.024060
0.048707,+0000008,-0000007,+0000003,+0000060,-0000100,+0004153,-0000850,+0000402,-0002269,14:56:15.025068
0.049040,-0000003,-0000010,-0000003,+0000045,-0000085,+0004143,-0000850,+0000402,-0002269,14:56:15.025068
0.049373,+0000010,-0000018,-0000003,+0000050,-0000107,+0004150,-0000850,+0000402,-0002269,14:56:15.025068
0.049706,+0000019,-0000043,-0000008,+0000043,-0000091,+0004153,-0000852,+0000416,-0002296,14:56:15.025068
0.050039,+0000024,-0000034,-0000014,+0000050,-0000067,+0004164,-0000852,+0000416,-0002296,14:56:15.025068
0.050372,+0000011,-0000019,-0000003,+0000057,-0000088,+0004147,-0000852,+0000416,-0002296,14:56:15.025068
0.050705,+0000008,-0000010,+0000000,+0000036,-0000112,+0004152,-0000846,+0000434,-0002292,14:56:15.025068
0.051038,+0000014,-0000021,-0000016,+0000050,-0000091,+0004144,-0000846,+0000434,-0002292,14:56:15.025068
0.051372,+0000016,-0000029,+0000004,+0000045,-0000081,+0004137,-0000846,+0000434,-0002292,14:56:15.025068
0.051704,+0000027,-0000034,-0000016,+0000040,-0000109,+0004137,-0000846,+0000418,-0002258,14:56:15.025068
0.052037,+0000008,-0000019,-0000008,+0000042,-0000097,+0004138,-0000846,+0000418,-0002258,14:56:15.025068
0.052370,+0000006,-0000002,-0000008,+0000019,-0000097,+0004159,-0000846,+0000418,-0002258,14:56:15.025068
0.052703,+0000017,-0000010,-0000010,+0000040,-0000092,+0004145,-0000850,+0000400,-0002303,14:56:15.025068
0.053036,+0000013,-0000028,-0000011,+0000041,-0000126,+0004159,-0000850,+0000400,-0002303,14:56:15.025068
0.053369,+0000005,-0000015,+0000011,+0000037,-0000115,+0004131,-0000850,+0000400,-0002303,14:56:15.025068
0.053985,+0000026,-0000031,-0000012,+0000037,-0000105,+0004130,-0000836,+0000404,-0002294,14:56:15.025068
0.054282,-0000017,+0000000,-0000004,+0000021,-0000099,+0004135,-0000836,+0000404,-0002294,14:56:15.025068
0.054427,-0000017,+0000000,-0000004,+0000021,-0000099,+0004135,-0000836,+0000404,-0002294,14:56:15.025068
0.054702,+0000022,-0000032,-0000007,+0000031,-0000104,+0004133,-0000838,+0000416,-0002298,14:56:15.025068
0.055035,+0000003,-0000016,+0000001,+0000043,-0000097,+0004151,-0000838,+0000416,-0002298,14:56:15.025068
0.055367,+0000022,-0000026,-0000001,+0000063,-0000088,+0004142,-0000838,+0000416,-0002298,14:56:15.025068
0.055700,+0000021,-0000014,-0000008,+0000045,-0000095,+0004159,-0000852,+0000432,-0002282,14:56:15.025068
0.056035,+0000026,-0000043,-0000024,+0000031,-0000085,+0004163,-0000852,+0000432,-0002282,14:56:15.025068
0.056367,-0000006,-0000005,+0000006,+0000040,-0000089,+0004150,-0000852,+0000432,-0002282,14:56:15.025068
0.056700,+0000013,-0000019,-0000015,+0000047,-0000115,+0004159,-0000842,+0000406,-0002288,14:56:15.025068
0.057033,-0000003,-0000012,-0000005,+0000044,-0000108,+0004152,-0000842,+0000406,-0002288,14:56:15.025068
0.057365,+0000016,-0000039,+0000003,+0000040,-0000108,+0004155,-0000842,+0000406,-0002288,14:56:15.025068
0.057698,+0000033,-0000027,-0000023,+0000022,-0000089,+0004146,-0000854,+0000416,-0002304,14:56:15.025068
0.058032,+0000014,-0000031,+0000000,+0000032,-0000108,+0004145,-0000854,+0000416,-0002304,14:56:15.025068
0.058364,+0000003,-0000013,-0000008,+0000049,-0000111,+0004155,-0000854,+0000416,-0002304,14:56:15.025068
0.058697,+0000000,-0000020,-0000016,+0000056,-0000074,+0004179,-0000840,+0000402,-0002324,14:56:15.025068
0.059030,+0000013,-0000020,+0000003,+0000038,-0000090,+0004142,-0000840,+0000402,-0002324,14:56:15.026176
0.059363,+0000033,-0000026,-0000013,+0000062,-0000092,+0004161,-0000840,+0000402,-0002324,14:56:15.026176
0.059696,+0000010,-0000044,-0000010,+0000043,-0000083,+0004155,-0000824,+0000408,-0002291,14:56:15.026176
0.060029,+0000024,-0000037,-0000005,+0000037,-0000086,+0004162,-0000824,+0000408,-0002291,14:56:15.026176
0.060362,+0000011,-0000008,-0000018,+0000043,-0000077,+0004141,-0000824,+0000408,-0002291,14:56:15.026176
0.060695,+0000008,-0000008,-0000004,+0000028,-0000082,+0004159,-0000836,+0000418,-0002289,14:56:15.026176
0.061028,+0000019,-0000028,-0000007,+0000033,-0000094,+0004174,-0000836,+0000418,-0002289,14:56:15.026176
0.061361,+0000011,-0000035,-0000008,+0000044,-0000096,+0004156,-0000836,+0000418,-0002289,14:56:15.026176
0.061694,+0000010,-0000029,-0000008,+0000035,-0000085,+0004167,-0000846,+0000410,-0002289,14:56:15.026176
0.062027,+0000028,-0000029,-0000027,+0000040,-0000110,+0004149,-0000846,+0000410,-0002289,14:56:15.026176
0.062360,+0000008,-0000002,+0000004,+0000043,-0000103,+0004148,-0000846,+0000410,-0002289,14:56:15.026176
0.062693,+0000016,-0000012,-0000016,+0000044,-0000113,+0004164,-0000830,+0000412,-0002284,14:56:15.026176
0.063026,+0000005,-0000024,+0000000,+0000042,-0000073,+0004143,-0000830,+0000412,-0002284,14:56:15.026176
0.063359,+0000033,-0000043,-0000022,+0000038,-0000075,+0004156,-0000830,+0000412,-0002284,14:56:15.026176
0.063692,+0000017,-0000029,+0000000,+0000041,-0000096,+0004149,-0000840,+0000400,-0002285,14:56:15.026176
0.064025,+0000011,-0000008,-0000016,+0000046,-0000092,+0004127,-0000840,+0000400,-0002285,14:56:15.026176
0.064358,+0000011,-0000013,-0000002,+0000026,-0000102,+0004152,-0000840,+0000400,-0002285,14:56:15.026176
0.064691,+0000007,-0000012,-0000013,+0000036,-0000115,+0004151,-0000838,+0000410,-0002271,14:56:15.026176
0.065024,+0000013,-0000029,-0000007,+0000026,-0000105,+0004157,-0000838,+0000410,-0002271,14:56:15.026176
0.065357,+0000024,-0000040,-0000003,+0000032,-0000080,+0004167,-0000838,+0000410,-0002271,14:56:15.026176
0.065690,+0000016,-0000020,-0000011,+0000035,-0000075,+0004170,-0000852,+0000406,-0002291,14:56:15.026176
0.066023,+0000021,-0000005,-0000005,+0000024,-0000073,+0004159,-0000852,+0000406,-0002291,14:56:15.026176
0.066356,-0000001,-0000023,-0000015,+0000042,-0000107,+0004169,-0000852,+0000406,-0002291,14:56:15.026176
0.066689,+0000011,-0000013,-0000002,+0000031,-0000091,+0004153,-0000848,+0000418,-0002328,14:56:15.026176
0.067022,+0000008,-0000018,-0000008,+0000029,-0000091,+0004151,-0000848,+0000418,-0002328,14:56:15.026176
0.067355,+0000046,-0000024,-0000003,+0000024,-0000075,+0004146,-0000848,+0000418,-0002328,14:56:15.026176
0.067688,+0000025,-0000020,-0000015,+0000048,-0000064,+0004152,-0000846,+0000420,-0002288,14:56:15.026176
0.068021,+0000019,-0000026,-0000008,+0000027,-0000094,+0004135,-0000846,+0000420,-0002288,14:56:15.026176
0.068354,+0000000,-0000008,-0000010,+0000030,-0000094,+0004148,-0000846,+0000420,-0002288,14:56:15.026176
0.068687,+0000017,-0000027,-0000013,+0000028,-0000110,+0004151,-0000842,+0000424,-0002301,14:56:15.026176
0.069020,+0000013,-0000020,-0000014,+0000044,-0000084,+0004148,-0000842,+0000424,-0002301,14:56:15.026176
0.069353,+0000016,-0000030,-0000002,+0000067,-0000092,+0004136,-0000842,+0000424,-0002301,14:56:15.026176
0.069686,+0000028,-0000019,-0000015,+0000042,-0000091,+0004158,-0000856,+0000426,-0002299,14:56:15.026176
0.070019,+0000006,-0000016,-0000003,+0000039,-0000093,+0004135,-0000856,+0000426,-0002299,14:56:15.026176
0.070352,+0000014,-0000002,-0000013,+0000031,-0000085,+0004143,-0000856,+0000426,-0002299,14:56:15.026176
0.070685,+0000014,-0000012,-0000006,+0000039,-0000096,+0004151,-0000830,+0000426,-0002288,14:56:15.026176
0.071018,+0000032,-0000029,-0000021,+0000045,-0000115,+0004161,-0000830,+0000426,-0002288,14:56:15.026176
0.071351,+0000014,-0000029,+0000006,+0000032,-0000100,+0004160,-0000830,+0000426,-0002288,14:56:15.026176
0.071684,+0000021,-0000029,-0000014,+0000047,-0000085,+0004148,-0000834,+0000412,-0002300,14:56:15.026176
0.072017,+0000005,-0000016,-0000010,+0000041,-0000097,+0004145,-0000834,+0000412,-0002300,14:56:15.026176
0.072350,+0000013,-0000005,-0000007,+0000063,-0000088,+0004167,-0000834,+0000412,-0002300,14:56:15.026176
0.072683,+0000019,-0000016,-0000012,+0000042,-0000088,+0004143,-0000830,+0000424,-0002302,14:56:15.026176
0.073016,+0000005,-0000040,+0000001,+0000028,-0000087,+0004168,-0000830,+0000424,-0002302,14:56:15.026176
0.073349,+0000030,-0000028,-0000022,+0000042,-0000099,+0004143,-0000830,+0000424,-0002302,14:56:15.026176
0.073682,+0000019,-0000030,-0000008,+0000036,-0000100,+0004152,-0000838,+0000418,-0002309,14:56:15.026176
0.074015,+0000010,-0000020,-0000018,+0000032,-0000113,+0004149,-0000838,+0000418,-0002309,14:56:15.026176
0.074348,+0000004,-0000004,+0000007,+0000036,-0000099,+0004155,-0000838,+0000418,-0002309,14:56:15.026176
0.074681,+0000014,-0000029,-0000008,+0000042,-0000093,+0004153,-0000834,+0000424,-0002291,14:56:15.026176
0.075014,+0000014,-0000039,+0000000,+0000039,-0000102,+0004152,-0000834,+0000424,-0002291,14:56:15.026176
0.075347,+0000030,-0000034,-0000018,+0000022,-0000114,+0004175,-0000834,+0000424,-0002291,14:56:15.026176
0.075680,+0000011,-0000018,-0000008,+0000058,-0000101,+0004156,-0000842,+0000424,-0002289,14:56:15.026176
0.076013,-0000006,-0000007,-0000005,+0000057,-0000100,+0004153,-0000842,+0000424,-0002289,14:56:15.026176
0.076346,+0000011,-0000015,+0000005,+0000037,-0000108,+0004142,-0000842,+0000424,-0002289,14:56:15.026176
0.076679,+0000016,-0000031,-0000008,+0000033,-0000090,+0004151,-0000834,+0000418,-0002300,14:56:15.026176
0.077012,+0000014,-0000023,-0000011,+0000029,-0000077,+0004161,-0000834,+0000418,-0002300,14:56:15.026176
0.077345,+0000019,-0000027,-0000007,+0000046,-0000078,+0004171,-0000834,+0000418,-0002300,14:56:15.026176
0.077678,-0000001,-0000020,-0000010,+0000043,-0000102,+0004145,-0000844,+0000422,-0002306,14:56:15.026176
0.078011,+0000011,-0000015,-0000003,+0000045,-0000086,+0004148,-0000844,+0000422,-0002306,14:56:15.026176
0.078344,+0000010,-0000026,+0000002,+0000045,-0000101,+0004153,-0000844,+0000422,-0002306,14:56:15.026176
0.078677,+0000011,-0000019,-0000010,+0000028,-0000094,+0004146,-0000852,+0000414,-0002301,14:56:15.026176
0.079010,+0000017,-0000039,-0000010,+0000039,-0000077,+0004164,-0000852,+0000414,-0002301,14:56:15.026176
0.079343,+0000020,-0000024,-0000013,+0000053,-0000113,+0004150,-0000852,+0000414,-0002301,14:56:15.026176
0.079676,+0000010,-0000010,-0000003,+0000052,-0000101,+0004160,-0000854,+0000422,-0002300,14:56:15.026176
0.080009,+0000013,-0000018,-0000005,+0000045,-0000082,+0004152,-0000854,+0000422,-0002300,14:56:15.026176
0.080387,+0000017,-0000023,-0000010,+0000045,-0000073,+0004171,-0000854,+0000422,-0002300,14:56:15.026176
0.080675,+0000016,-0000027,-0000005,+0000033,-0000086,+0004172,-0000830,+0000424,-0002287,14:56:15.026176
0.081008,+0000018,-0000002,-0000011,+0000050,-0000076,+0004160,-0000830,+0000424,-0002287,14:56:15.026176
0.081341,+0000017,-0000013,-0000008,+0000044,-0000074,+0004160,-0000830,+0000424,-0002287,14:56:15.026176
0.081674,+0000011,-0000020,-0000013,+0000038,-0000093,+0004137,-0000836,+0000416,-0002288,14:56:15.026176
0.082007,+0000011,-0000011,-0000002,+0000053,-0000094,+0004152,-0000836,+0000416,-0002288,14:56:15.026176
0.082340,+0000013,-0000023,-0000010,+0000046,-0000092,+0004153,-0000836,+0000416,-0002288,14:56:15.026176
0.082673,+0000006,-0000035,-0000008,+0000044,-0000099,+0004161,-0000832,+0000412,-0002303,14:56:15.026176
0.083006,+0000021,-0000015,-0000003,+0000032,-0000094,+0004163,-0000832,+0000412,-0002303,14:56:15.026176
0.083339,+0000016,-0000032,-0000016,+0000030,-0000100,+0004150,-0000832,+0000412,-0002303,14:56:15.026176
0.083672,+0000021,-0000016,-0000008,+0000027,-0000101,+0004145,-0000830,+0000418,-0002299,14:56:15.026176
0.084005,-0000006,-0000015,-0000005,+0000029,-0000083,+0004156,-0000830,+0000418,-0002299,14:56:15.026176
0.084338,+0000024,-0000014,-0000013,+0000050,-0000106,+0004144,-0000830,+0000418,-0002299,14:56:15.026176
0.084671,+0000032,-0000029,-0000004,+0000028,-0000106,+0004165,-0000836,+0000422,-0002302,14:56:15.026176
0.085004,+0000018,-0000048,-0000016,+0000030,-0000112,+0004147,-0000836,+0000422,-0002302,14:56:15.026176
0.085337,+0000014,-0000034,-0000010,+0000044,-0000112,+0004144,-0000836,+0000422,-0002302,14:56:15.026176
0.085670,-0000001,-0000005,-0000010,+0000038,-0000098,+0004155,-0000842,+0000426,-0002306,14:56:15.026176
0.086003,+0000002,-0000017,-0000010,+0000035,-0000101,+0004160,-0000842,+0000426,-0002306,14:56:15.026176
0.086336,+0000014,-0000021,+0000000,+0000029,-0000099,+0004140,-0000842,+0000426,-0002306,14:56:15.026176
0.086669,+0000027,-0000046,-0000002,+0000045,-0000084,+0004136,-0000818,+0000408,-0002268,14:56:15.026176
0.087002,+0000029,-0000042,-0000017,+0000029,-0000096,+0004166,-0000818,+0000408,-0002268,14:56:15.026176
0.087335,+0000016,-0000027,+0000001,+0000040,-0000092,+0004144,-0000818,+0000408,-0002268,14:56:15.027237
0.087668,+0000008,-0000015,+0000000,+0000039,-0000087,+0004147,-0000836,+0000410,-0002302,14:56:15.027237
0.088001,+0000007,-0000007,+0000000,+0000055,-0000078,+0004161,-0000836,+0000410,-0002302,14:56:15.027237
0.088334,+0000020,-0000035,-0000014,+0000050,-0000096,+0004142,-0000836,+0000410,-0002302,14:56:15.027237
0.088667,+0000019,-0000031,-0000005,+0000057,-0000102,+0004153,-0000844,+0000420,-0002286,14:56:15.027237
0.089000,+0000011,-0000031,-0000013,+0000065,-0000100,+0004169,-0000844,+0000420,-0002286,14:56:15.027237
0.089333,+0000025,-0000029,-0000008,+0000050,-0000100,+0004149,-0000844,+0000420,-0002286,14:56:15.027237
0.089666,-0000003,-0000010,-0000005,+0000066,-0000096,+0004149,-0000856,+0000426,-0002319,14:56:15.027237
0.089999,+0000008,-0000026,+0000004,+0000048,-0000091,+0004158,-0000856,+0000426,-0002319,14:56:15.027237
0.090332,+0000027,-0000026,-0000016,+0000038,-0000109,+0004155,-0000856,+0000426,-0002319,14:56:15.027237
0.090665,+0000015,-0000042,+0000003,+0000041,-0000094,+0004148,-0000830,+0000440,-0002288,14:56:15.087593
0.090998,+0000033,-0000037,-0000018,+0000034,-0000101,+0004158,-0000830,+0000440,-0002288,14:56:15.087593
0.091338,+0000004,-0000002,-0000002,+0000038,-0000085,+0004158,-0000830,+0000440,-0002288,14:56:15.087593
0.091968,+0000018,-0000029,-0000012,+0000051,-0000087,+0004163,-0000838,+0000424,-0002289,14:56:15.087593
0.092257,+0000002,-0000013,-0000013,+0000047,-0000102,+0004170,-0000838,+0000424,-0002289,14:56:15.087593
0.092395,+0000002,-0000013,-0000013,+0000050,-0000070,+0004133,-0000838,+0000424,-0002289,14:56:15.087593
0.092831,-0000016,+0000003,-0000007,+0000041,-0000100,+0004155,-0000830,+0000416,-0002280,14:56:15.087593
0.093100,+0000030,-0000022,-0000010,+0000055,-0000116,+0004165,-0000830,+0000416,-0002280,14:56:15.087593
0.093329,+0000022,-0000024,-0000003,+0000035,-0000098,+0004162,-0000830,+0000416,-0002280,14:56:15.087593
0.093662,+0000005,-0000022,-0000016,+0000059,-0000105,+0004157,-0000846,+0000412,-0002290,14:56:15.087593
0.093997,+0000010,-0000010,+0000004,+0000025,-0000107,+0004168,-0000846,+0000412,-0002290,14:56:15.087593
0.094332,+0000003,-0000037,-0000008,+0000069,-0000102,+0004165,-0000846,+0000412,-0002290,14:56:15.087593
0.094661,+0000033,-0000029,-0000013,+0000049,-0000094,+0004143,-0000826,+0000410,-0002298,14:56:15.087593
0.095062,+0000011,-0000010,-0000010,+0000039,-0000111,+0004143,-0000826,+0000410,-0002298,14:56:15.087593
0.095574,+0000016,-0000037,-0000011,+0000040,-0000111,+0004152,-0000826,+0000410,-0002298,14:56:15.087593
0.095760,+0000016,-0000037,-0000011,+0000060,-0000102,+0004152,-0000842,+0000416,-0002305,14:56:15.087593
0.095997,+0000011,-0000024,-0000011,+0000060,-0000102,+0004152,-0000842,+0000416,-0002305,14:56:15.087593
0.096434,+0000014,-0000027,-0000016,+0000043,-0000088,+0004138,-0000842,+0000416,-0002305,14:56:15.087593
0.096660,-0000001,-0000011,-0000002,+0000062,-0000081,+0004154,-0000836,+0000426,-0002307,14:56:15.087593
0.096993,+0000024,-0000018,-0000011,+0000047,-0000093,+0004135,-0000836,+0000426,-0002307,14:56:15.087593
0.097327,+0000008,-0000014,-0000004,+0000032,-0000103,+0004148,-0000836,+0000426,-0002307,14:56:15.087593
0.097660,+0000016,-0000012,-0000011,+0000040,-0000088,+0004160,-0000852,+0000418,-0002297,14:56:15.087593
0.097991,+0000013,-0000018,-0000002,+0000047,-0000107,+0004153,-0000852,+0000418,-0002297,14:56:15.087593
0.098324,+0000025,-0000034,-0000003,+0000031,-0000078,+0004149,-0000852,+0000418,-0002297,14:56:15.087593
0.098657,+0000024,-0000031,-0000015,+0000047,-0000100,+0004137,-0000840,+0000422,-0002302,14:56:15.087593
0.098990,+0000013,-0000021,-0000005,+0000017,-0000095,+0004151,-0000840,+0000422,-0002302,14:56:15.087593
0.099323,+0000019,-0000028,-0000005,+0000048,-0000116,+0004154,-0000840,+0000422,-0002302,14:56:15.087593
0.099658,+0000008,-0000013,-0000007,+0000018,-0000090,+0004163,-0000842,+0000424,-0002281,14:56:15.087593
0.099990,+0000000,-0000018,-0000002,+0000045,-0000113,+0004156,-0000842,+0000424,-0002281,14:56:15.088599
0.100322,+0000024,-0000032,-0000008,+0000035,-0000100,+0004142,-0000842,+0000424,-0002281,14:56:15.088599
0.100655,+0000024,-0000043,-0000018,+0000034,-0000086,+0004129,-0000844,+0000412,-0002283,14:56:15.088599
0.100988,+0000015,-0000024,-0000016,+0000036,-0000094,+0004149,-0000844,+0000412,-0002283,14:56:15.088599
0.101321,+0000010,-0000013,+0000000,+0000037,-0000100,+0004167,-0000844,+0000412,-0002283,14:56:15.088599
0.101654,+0000007,+0000001,-0000004,+0000049,-0000101,+0004143,-0000838,+0000418,-0002282,14:56:15.088599
0.101987,+0000028,-0000037,-0000013,+0000034,-0000088,+0004152,-0000838,+0000418,-0002282,14:56:15.088599
0.102320,+0000019,-0000026,-0000002,+0000026,-0000115,+0004155,-0000838,+0000418,-0002282,14:56:15.088599
0.102653,+0000022,-0000043,-0000018,+0000049,-0000101,+0004157,-0000826,+0000426,-0002268,14:56:15.088599
0.102986,+0000014,-0000029,+0000001,+0000045,-0000085,+0004141,-0000826,+0000426,-0002268,14:56:15.088599
0.103319,-0000003,-0000005,-0000002,+0000050,-0000090,+0004155,-0000826,+0000426,-0002268,14:56:15.088599
0.103652,-0000002,-0000016,+0000000,+0000045,-0000083,+0004150,-0000840,+0000414,-0002291,14:56:15.088599
0.103985,+0000030,-0000029,+0000000,+0000033,-0000103,+0004147,-0000840,+0000414,-0002291,14:56:15.088599
0.104318,+0000011,-0000028,-0000016,+0000047,-0000086,+0004161,-0000840,+0000414,-0002291,14:56:15.088599
0.104651,+0000033,-0000035,-0000008,+0000027,-0000102,+0004136,-0000838,+0000416,-0002299,14:56:15.088599
0.104984,+0000003,-0000011,-0000011,+0000033,-0000091,+0004150,-0000838,+0000416,-0002299,14:56:15.088599
0.105317,+0000019,-0000016,-0000010,+0000036,-0000078,+0004136,-0000838,+0000416,-0002299,14:56:15.088599
0.105650,+0000007,-0000030,-0000016,+0000036,-0000105,+0004169,-0000826,+0000416,-0002286,14:56:15.088599
0.105983,+0000014,-0000026,-0000005,+0000023,-0000083,+0004161,-0000826,+0000416,-0002286,14:56:15.088599
0.106348,+0000013,-0000048,-0000010,+0000049,-0000073,+0004142,-0000826,+0000416,-0002286,14:56:15.088599
0.106649,+0000032,-0000016,-0000008,+0000034,-0000080,+0004140,-0000850,+0000404,-0002326,14:56:15.088599
0.106982,+0000014,-0000027,-0000018,+0000035,-0000088,+0004175,-0000850,+0000404,-0002326,14:56:15.088599
0.107315,-0000006,-0000005,+0000001,+0000048,-0000095,+0004145,-0000850,+0000404,-0002326,14:56:15.088599
0.107648,+0000016,-0000019,-0000010,+0000049,-0000086,+0004135,-0000840,+0000414,-0002289,14:56:15.088599
0.107981,+0000006,-0000024,-0000008,+0000068,-0000096,+0004153,-0000840,+0000414,-0002289,14:56:15.088599
0.108314,+0000025,-0000018,-0000013,+0000042,-0000112,+0004168,-0000840,+0000414,-0002289,14:56:15.088599
0.108647,+0000008,-0000028,-0000010,+0000047,-0000081,+0004147,-0000852,+0000430,-0002284,14:56:15.088599
0.108980,+0000013,-0000021,-0000008,+0000049,-0000095,+0004154,-0000852,+0000430,-0002284,14:56:15.088599
0.109313,+0000004,-0000018,+0000001,+0000058,-0000090,+0004152,-0000852,+0000430,-0002284,14:56:15.088599
0.109646,+0000010,-0000015,-0000016,+0000051,-0000089,+0004148,-0000842,+0000428,-0002293,14:56:15.088599
0.109979,+0000016,-0000025,-0000010,+0000040,-0000096,+0004140,-0000842,+0000428,-0002293,14:56:15.088599
0.110312,+0000019,-0000034,-0000016,+0000028,-0000092,+0004139,-0000842,+0000428,-0002293,14:56:15.088599
0.110645,+0000008,-0000024,-0000010,+0000048,-0000103,+0004169,-0000844,+0000412,-0002296,14:56:15.088599
0.110978,+0000005,-0000021,-0000005,+0000034,-0000084,+0004164,-0000844,+0000412,-0002296,14:56:15.088599
0.111311,-0000004,-0000013,-0000002,+0000059,-0000083,+0004137,-0000844,+0000412,-0002296,14:56:15.088599
0.111644,+0000025,-0000023,+0000003,+0000051,-0000086,+0004144,-0000842,+0000416,-0002303,14:56:15.088599
0.111977,+0000011,-0000031,-0000014,+0000040,-0000108,+0004152,-0000842,+0000416,-0002303,14:56:15.088599
0.112310,+0000025,-0000034,-0000011,+0000048,-0000103,+0004155,-0000842,+0000416,-0002303,14:56:15.088599
0.112643,+0000010,-0000031,-0000015,+0000031,-0000097,+0004152,-0000858,+0000434,-0002328,14:56:15.088599
0.112976,+0000010,-0000018,-0000008,+0000050,-0000120,+0004150,-0000858,+0000434,-0002328,14:56:15.088599
0.113309,-0000001,-0000016,-0000010,+0000048,-0000086,+0004171,-0000858,+0000434,-0002328,14:56:15.088599
0.113642,+0000005,-0000018,+0000011,+0000039,-0000073,+0004151,-0000844,+0000396,-0002296,14:56:15.088599
0.113975,+0000021,-0000034,-0000019,+0000035,-0000084,+0004116,-0000844,+0000396,-0002296,14:56:15.088599
0.114308,+0000030,-0000028,-0000011,+0000044,-0000091,+0004157,-0000844,+0000396,-0002296,14:56:15.088599
0.114641,+0000017,-0000021,-0000005,+0000043,-0000090,+0004148,-0000842,+0000422,-0002287,14:56:15.088599
0.114974,+0000002,-0000024,-0000007,+0000048,-0000073,+0004136,-0000842,+0000422,-0002287,14:56:15.088599
0.115307,-0000003,-0000019,-0000004,+0000040,-0000095,+0004145,-0000842,+0000422,-0002287,14:56:15.088599
0.115640,+0000019,-0000037,-0000007,+0000024,-0000104,+0004150,-0000842,+0000416,-0002296,14:56:15.088599
0.115973,+0000005,-0000031,-0000010,+0000038,-0000104,+0004172,-0000842,+0000416,-0002296,14:56:15.089598
0.116306,+0000019,-0000034,-0000003,+0000035,-0000109,+0004148,-0000842,+0000416,-0002296,14:56:15.089598
0.116639,+0000016,-0000032,-0000016,+0000043,-0000093,+0004167,-0000830,+0000418,-0002277,14:56:15.089598
0.116972,-0000005,+0000004,-0000002,+0000036,-0000096,+0004150,-0000830,+0000418,-0002277,14:56:15.089598
0.117305,+0000005,-0000004,-0000013,+0000035,-0000093,+0004148,-0000830,+0000418,-0002277,14:56:15.089598
0.117638,+0000011,-0000031,-0000013,+0000049,-0000098,+0004151,-0000834,+0000414,-0002299,14:56:15.089598
0.117971,+0000013,-0000040,+0000001,+0000055,-0000089,+0004155,-0000834,+0000414,-0002299,14:56:15.089598
0.118304,+0000021,-0000023,-0000021,+0000038,-0000102,+0004164,-0000834,+0000414,-0002299,14:56:15.089598
0.118637,+0000008,-0000023,-0000008,+0000032,-0000099,+0004136,-0000834,+0000408,-0002281,14:56:15.089598
0.118970,+0000002,-0000015,-0000004,+0000045,-0000094,+0004141,-0000834,+0000408,-0002281,14:56:15.089598
0.119303,+0000013,-0000010,-0000008,+0000046,-0000098,+0004158,-0000834,+0000408,-0002281,14:56:15.089598
0.119636,+0000016,-0000029,-0000007,+0000039,-0000089,+0004142,-0000838,+0000420,-0002319,14:56:15.089598
0.119969,+0000019,-0000042,+0000003,+0000033,-0000097,+0004168,-0000838,+0000420,-0002319,14:56:15.089598
0.120302,+0000024,-0000023,-0000002,+0000039,-0000089,+0004153,-0000838,+0000420,-0002319,14:56:15.089598
0.120635,-0000011,-0000012,-0000005,+0000036,-0000100,+0004141,-0000824,+0000414,-0002310,14:56:15.089598
0.120968,+0000019,-0000013,-0000008,+0000047,-0000080,+0004150,-0000824,+0000414,-0002310,14:56:15.089598
0.121301,+0000006,-0000013,+0000001,+0000046,-0000079,+0004156,-0000824,+0000414,-0002310,14:56:15.089598
0.121634,+0000019,-0000040,-0000021,+0000037,-0000092,+0004134,-0000828,+0000418,-0002299,14:56:15.089598
0.121967,+0000021,-0000021,-0000005,+0000037,-0000102,+0004169,-0000828,+0000418,-0002299,14:56:15.089598
0.122300,+0000022,-0000034,-0000016,+0000022,-0000102,+0004138,-0000828,+0000418,-0002299,14:56:15.089598
0.122633,-0000009,+0000005,-0000003,+0000035,-0000078,+0004137,-0000846,+0000410,-0002307,14:56:15.089598
0.122966,+0000025,-0000029,-0000014,+0000048,-0000092,+0004145,-0000846,+0000410,-0002307,14:56:15.089598
0.123299,-0000003,-0000008,+0000003,+0000026,-0000063,+0004128,-0000846,+0000410,-0002307,14:56:15.089598
0.123632,+0000030,-0000027,-0000008,+0000056,-0000110,+0004154,-0000822,+0000406,-0002276,14:56:15.089598
0.123965,+0000019,-0000016,-0000007,+0000026,-0000106,+0004145,-0000822,+0000406,-0002276,14:56:15.089598
0.124298,+0000019,-0000026,-0000016,+0000073,-0000094,+0004159,-0000822,+0000406,-0002276,14:56:15.089598
0.124631,+0000010,-0000008,+0000003,+0000039,-0000078,+0004159,-0000834,+0000412,-0002271,14:56:15.089598
0.124964,-0000006,-0000012,-0000013,+0000067,-0000091,+0004143,-0000834,+0000412,-0002271,14:56:15.089598
0.125297,+0000025,-0000021,-0000013,+0000046,-0000091,+0004149,-0000834,+0000412,-0002271,14:56:15.089598
0.125630,+0000014,-0000032,+0000000,+0000059,-0000085,+0004150,-0000834,+0000398,-0002291,14:56:15.089598
0.125963,+0000020,-0000032,-0000019,+0000058,-0000097,+0004147,-0000834,+0000398,-0002291,14:56:15.089598
0.126296,+0000019,-0000027,-0000004,+0000046,-0000089,+0004163,-0000834,+0000398,-0002291,14:56:15.089598
0.126629,+0000006,-0000023,-0000011,+0000055,-0000090,+0004159,-0000834,+0000406,-0002271,14:56:15.089598
0.126962,+0000008,-0000013,-0000016,+0000038,-0000083,+0004147,-0000834,+0000406,-0002271,14:56:15.089598
0.127295,+0000010,-0000013,+0000001,+0000034,-0000079,+0004167,-0000834,+0000406,-0002271,14:56:15.089598
0.127628,+0000021,-0000040,-0000010,+0000045,-0000088,+0004147,-0000834,+0000406,-0002290,14:56:15.089598
0.127961,+0000018,-0000038,-0000011,+0000036,-0000084,+0004156,-0000834,+0000406,-0002290,14:56:15.089598
0.128294,+0000022,-0000021,-0000011,+0000050,-0000076,+0004166,-0000834,+0000406,-0002290,14:56:15.089598
0.128627,+0000011,-0000018,-0000006,+0000046,-0000114,+0004156,-0000838,+0000414,-0002314,14:56:15.089598
0.128960,+0000012,-0000018,-0000010,+0000047,-0000083,+0004164,-0000838,+0000414,-0002314,14:56:15.089598
0.129293,+0000012,-0000019,-0000002,+0000044,-0000095,+0004163,-0000838,+0000414,-0002314,14:56:15.089598
0.129626,+0000019,-0000029,-0000011,+0000056,-0000077,+0004148,-0000844,+0000412,-0002273,14:56:15.089598
0.129959,+0000017,-0000026,-0000014,+0000038,-0000065,+0004144,-0000844,+0000412,-0002273,14:56:15.089598
0.130292,+0000023,-0000034,-0000007,+0000027,-0000114,+0004155,-0000844,+0000412,-0002273,14:56:15.089598
0.130625,-0000001,-0000013,-0000003,+0000025,-0000102,+0004150,-0000840,+0000424,-0002265,14:56:15.089598
0.130958,+0000007,-0000018,-0000008,+0000054,-0000097,+0004167,-0000840,+0000424,-0002265,14:56:15.089598
0.131291,+0000007,-0000021,-0000008,+0000030,-0000111,+0004145,-0000840,+0000424,-0002265,14:56:15.089598
0.131624,+0000014,-0000029,-0000008,+0000049,-0000098,+0004145,-0000848,+0000404,-0002266,14:56:15.089598
0.131957,+0000033,-0000039,-0000018,+0000043,-0000102,+0004149,-0000848,+0000404,-0002266,14:56:15.089598
0.132290,+0000014,-0000013,-0000006,+0000045,-0000086,+0004148,-0000848,+0000404,-0002266,14:56:15.089598
0.132623,-0000006,-0000013,+0000000,+0000047,-0000093,+0004162,-0000832,+0000404,-0002287,14:56:15.089598
0.132956,+0000017,-0000018,-0000011,+0000031,-0000096,+0004160,-0000832,+0000404,-0002287,14:56:15.089598
0.133289,+0000021,-0000019,-0000011,+0000058,-0000110,+0004138,-0000832,+0000404,-0002287,14:56:15.089598
0.133622,+0000022,-0000045,-0000010,+0000028,-0000089,+0004147,-0000840,+0000428,-0002303,14:56:15.089598
0.133955,+0000022,-0000018,-0000005,+0000060,-0000115,+0004159,-0000840,+0000428,-0002303,14:56:15.089598
0.134288,+0000022,-0000014,-0000019,+0000047,-0000135,+0004168,-0000840,+0000428,-0002303,14:56:15.089598
0.134621,-0000001,-0000011,-0000003,+0000054,-0000109,+0004148,-0000840,+0000412,-0002311,14:56:15.089598
0.134954,+0000022,-0000027,-0000013,+0000055,-0000085,+0004161,-0000840,+0000412,-0002311,14:56:15.089598
0.135287,+0000016,-0000031,-0000008,+0000037,-0000085,+0004157,-0000840,+0000412,-0002311,14:56:15.089598
0.135620,+0000027,-0000018,-0000002,+0000046,-0000083,+0004159,-0000828,+0000410,-0002290,14:56:15.089598
0.135953,+0000016,-0000018,-0000021,+0000036,-0000097,+0004138,-0000828,+0000410,-0002290,14:56:15.089598
0.136286,+0000005,-0000010,+0000003,+0000046,-0000090,+0004151,-0000828,+0000410,-0002290,14:56:15.089598
0.136619,-0000006,-0000015,-0000018,+0000027,-0000077,+0004142,-0000838,+0000404,-0002289,14:56:15.089598
0.136952,+0000008,-0000026,-0000007,+0000029,-0000095,+0004163,-0000838,+0000404,-0002289,14:56:15.089598
0.137285,+0000011,-0000013,-0000013,+0000055,-0000082,+0004144,-0000838,+0000404,-0002289,14:56:15.089598
0.137618,+0000012,-0000044,-0000004,+0000050,-0000096,+0004155,-0000838,+0000408,-0002289,14:56:15.089598
0.137951,+0000019,-0000018,-0000016,+0000040,-0000077,+0004143,-0000838,+0000408,-0002289,14:56:15.089598
0.138284,+0000008,-0000016,-0000008,+0000040,-0000095,+0004148,-0000838,+0000408,-0002289,14:56:15.089598
0.138617,-0000009,-0000013,-0000004,+0000045,-0000089,+0004146,-0000836,+0000412,-0002311,14:56:15.089598
0.138950,+0000022,-0000021,-0000015,+0000054,-0000086,+0004141,-0000836,+0000412,-0002311,14:56:15.089598
0.139283,+0000015,-0000027,+0000003,+0000038,-0000110,+0004160,-0000836,+0000412,-0002311,14:56:15.089598
0.139616,+0000035,-0000039,-0000016,+0000048,-0000119,+0004140,-0000840,+0000422,-0002292,14:56:15.089598
0.139949,+0000007,-0000032,-0000012,+0000046,-0000112,+0004144,-0000840,+0000422,-0002292,14:56:15.089598
0.140282,+0000005,-0000024,-0000010,+0000044,-0000091,+0004163,-0000840,+0000422,-0002292,14:56:15.089598
0.140616,+0000010,-0000005,-0000007,+0000045,-0000085,+0004135,-0000848,+0000422,-0002318,14:56:15.123920
0.140948,+0000019,-0000013,-0000004,+0000048,-0000092,+0004168,-0000848,+0000422,-0002318,14:56:15.123920
0.141283,+0000025,-0000047,-0000010,+0000056,-0000101,+0004168,-0000848,+0000422,-0002318,14:56:15.123920
0.141966,+0000008,-0000019,-0000011,+0000035,-0000074,+0004141,-0000812,+0000422,-0002311,14:56:15.123920
0.142351,+0000006,-0000018,-0000002,+0000050,-0000089,+0004139,-0000812,+0000422,-0002311,14:56:15.123920
0.142619,+0000024,-0000010,-0000007,+0000027,-0000089,+0004179,-0000812,+0000422,-0002311,14:56:15.123920
0.142949,+0000002,-0000034,-0000010,+0000053,-0000112,+0004152,-0000834,+0000422,-0002325,14:56:15.123920
0.143353,+0000011,-0000014,-0000012,+0000037,-0000105,+0004161,-0000834,+0000422,-0002325,14:56:15.123920
0.143612,+0000013,-0000032,-0000005,+0000045,-0000089,+0004161,-0000834,+0000422,-0002325,14:56:15.123920
0.143945,+0000013,-0000021,-0000005,+0000033,-0000105,+0004156,-0000824,+0000428,-0002324,14:56:15.123920
0.144278,-0000002,-0000008,-0000007,+0000047,-0000091,+0004163,-0000824,+0000428,-0002324,14:56:15.123920
0.144612,+0000014,-0000015,-0000004,+0000068,-0000096,+0004154,-0000824,+0000428,-0002324,14:56:15.123920
0.144982,+0000021,-0000034,-0000011,+0000052,-0000091,+0004140,-0000844,+0000422,-0002329,14:56:15.123920
0.145277,+0000022,-0000048,-0000010,+0000026,-0000090,+0004121,-0000844,+0000422,-0002329,14:56:15.123920
0.145610,+0000021,-0000032,-0000002,+0000050,-0000088,+0004134,-0000844,+0000422,-0002329,14:56:15.123920
0.145943,+0000008,-0000024,-0000011,+0000061,-0000104,+0004158,-0000842,+0000422,-0002280,14:56:15.123920
0.146276,+0000000,-0000015,-0000004,+0000046,-0000089,+0004159,-0000842,+0000422,-0002280,14:56:15.123920
0.146609,+0000019,-0000018,-0000011,+0000052,-0000082,+0004152,-0000842,+0000422,-0002280,14:56:15.123920
0.146942,+0000016,-0000034,+0000001,+0000058,-0000097,+0004156,-0000842,+0000422,-0002314,14:56:15.123920
0.147275,+0000013,-0000029,-0000007,+0000041,-0000107,+0004158,-0000842,+0000422,-0002314,14:56:15.123920
0.147608,+0000029,-0000010,-0000013,+0000036,-0000098,+0004156,-0000842,+0000422,-0002314,14:56:15.123920
0.147941,+0000003,-0000010,+0000001,+0000038,-0000109,+0004157,-0000854,+0000428,-0002318,14:56:15.123920
0.148274,+0000022,-0000013,-0000019,+0000052,-0000095,+0004137,-0000854,+0000428,-0002318,14:56:15.123920
0.148607,-0000002,-0000022,+0000000,+0000030,-0000113,+0004131,-0000854,+0000428,-0002318,14:56:15.123920
0.148940,+0000025,-0000021,-0000012,+0000037,-0000101,+0004164,-0000832,+0000412,-0002299,14:56:15.123920
0.149274,+0000014,-0000018,-0000005,+0000049,-0000091,+0004143,-0000832,+0000412,-0002299,14:56:15.123920
0.149606,+0000004,-0000019,-0000018,+0000032,-0000093,+0004139,-0000832,+0000412,-0002299,14:56:15.123920
0.149939,-0000001,-0000013,-0000002,+0000036,-0000086,+0004152,-0000846,+0000420,-0002315,14:56:15.123920
0.150274,+0000025,-0000016,-0000013,+0000028,-0000083,+0004134,-0000846,+0000420,-0002315,14:56:15.123920
0.150605,+0000000,-0000015,-0000008,+0000032,-0000092,+0004143,-0000846,+0000420,-0002315,14:56:15.123920
0.150938,+0000014,-0000020,-0000011,+0000038,-0000108,+0004134,-0000840,+0000430,-0002279,14:56:15.123920
0.151274,+0000014,-0000026,-0000018,+0000025,-0000099,+0004147,-0000840,+0000430,-0002279,14:56:15.123920
0.151604,+0000026,-0000015,-0000019,+0000022,-0000082,+0004138,-0000840,+0000430,-0002279,14:56:15.123920
0.151937,-0000006,-0000013,+0000003,+0000048,-0000118,+0004127,-0000834,+0000422,-0002282,14:56:15.123920
0.152275,+0000013,-0000005,-0000019,+0000057,-0000103,+0004154,-0000834,+0000422,-0002282,14:56:15.123920
0.152603,+0000008,-0000019,-0000008,+0000043,-0000099,+0004159,-0000834,+0000422,-0002282,14:56:15.123920
0.152936,+0000011,-0000034,-0000008,+0000031,-0000082,+0004163,-0000834,+0000432,-0002308,14:56:15.123920
0.153274,+0000027,-0000039,+0000001,+0000043,-0000084,+0004157,-0000834,+0000432,-0002308,14:56:15.123920
0.153602,+0000010,-0000028,-0000024,+0000043,-0000093,+0004150,-0000834,+0000432,-0002308,14:56:15.123920
0.153935,+0000005,-0000005,-0000001,+0000030,-0000094,+0004146,-0000848,+0000408,-0002297,14:56:15.123920
0.154273,+0000005,+0000000,-0000003,+0000050,-0000093,+0004135,-0000848,+0000408,-0002297,14:56:15.123920
0.154601,+0000011,-0000028,-0000007,+0000051,-0000108,+0004131,-0000848,+0000408,-0002297,14:56:15.123920
0.154934,+0000024,-0000040,-0000005,+0000040,-0000089,+0004145,-0000844,+0000420,-0002310,14:56:15.123920
0.155340,+0000029,-0000034,-0000011,+0000049,-0000079,+0004147,-0000844,+0000420,-0002310,14:56:15.123920
0.155600,+0000008,-0000044,-0000018,+0000043,-0000084,+0004147,-0000844,+0000420,-0002310,14:56:15.123920
0.155933,+0000015,-0000028,-0000003,+0000063,-0000095,+0004140,-0000840,+0000420,-0002278,14:56:15.123920
0.156271,+0000002,-0000013,-0000007,+0000045,-0000094,+0004138,-0000840,+0000420,-0002278,14:56:15.124931
0.156600,+0000011,-0000025,+0000001,+0000049,-0000074,+0004137,-0000840,+0000420,-0002278,14:56:15.124931
0.156932,+0000024,-0000044,-0000010,+0000036,-0000087,+0004146,-0000824,+0000418,-0002296,14:56:15.124931
0.157270,+0000021,-0000031,-0000011,+0000045,-0000104,+0004127,-0000824,+0000418,-0002296,14:56:15.124931
0.157599,+0000014,-0000022,-0000010,+0000051,-0000089,+0004140,-0000824,+0000418,-0002296,14:56:15.124931
0.157931,+0000006,-0000018,-0000006,+0000037,-0000106,+0004149,-0000846,+0000402,-0002291,14:56:15.124931
0.158292,+0000013,-0000028,+0000004,+0000040,-0000082,+0004135,-0000846,+0000402,-0002291,14:56:15.124931
0.158601,+0000025,-0000031,-0000016,+0000052,-0000102,+0004156,-0000846,+0000402,-0002291,14:56:15.124931
0.158930,+0000024,-0000037,-0000008,+0000036,-0000087,+0004151,-0000832,+0000400,-0002294,14:56:15.124931
0.159267,+0000003,-0000010,+0000000,+0000050,-0000115,+0004171,-0000832,+0000400,-0002294,14:56:15.125675
0.159598,-0000019,+0000014,-0000002,+0000025,-0000085,+0004174,-0000832,+0000400,-0002294,14:56:15.125675
0.159929,+0000015,-0000005,-0000010,+0000041,-0000107,+0004158,-0000838,+0000416,-0002294,14:56:15.125675
0.160267,+0000005,-0000038,-0000008,+0000054,-0000105,+0004152,-0000838,+0000416,-0002294,14:56:15.125675
0.160596,+0000024,-0000024,-0000002,+0000048,-0000083,+0004158,-0000838,+0000416,-0002294,14:56:15.125675
0.160928,+0000013,-0000044,-0000015,+0000033,-0000094,+0004168,-0000844,+0000406,-0002282,14:56:15.125675
0.161267,+0000007,-0000009,-0000011,+0000046,-0000104,+0004173,-0000844,+0000406,-0002282,14:56:15.125675
0.161595,+0000013,-0000015,-0000003,+0000056,-0000103,+0004175,-0000844,+0000406,-0002282,14:56:15.125675
0.161929,+0000015,-0000019,-0000010,+0000030,-0000097,+0004151,-0000844,+0000416,-0002287,14:56:15.125675
0.162268,+0000005,-0000012,-0000004,+0000056,-0000084,+0004154,-0000844,+0000416,-0002287,14:56:15.125675
0.162593,+0000019,-0000034,+0000001,+0000059,-0000076,+0004177,-0000844,+0000416,-0002287,14:56:15.125675
0.162926,+0000014,-0000030,-0000008,+0000061,-0000109,+0004157,-0000834,+0000414,-0002316,14:56:15.125675
0.163263,+0000005,-0000018,-0000007,+0000051,-0000107,+0004156,-0000834,+0000414,-0002316,14:56:15.125675
0.163592,+0000014,-0000019,-0000005,+0000057,-0000068,+0004151,-0000834,+0000414,-0002316,14:56:15.125675
0.163925,+0000000,-0000003,-0000008,+0000035,-0000084,+0004156,-0000844,+0000408,-0002310,14:56:15.125675
0.164258,+0000015,-0000013,-0000008,+0000035,-0000100,+0004164,-0000844,+0000408,-0002310,14:56:15.125675
0.164591,+0000010,-0000035,-0000015,+0000045,-0000101,+0004155,-0000844,+0000408,-0002310,14:56:15.125675
0.164924,+0000029,-0000040,-0000008,+0000040,-0000091,+0004164,-0000830,+0000410,-0002290,14:56:15.125675
0.165258,+0000013,-0000021,-0000005,+0000051,-0000098,+0004133,-0000830,+0000410,-0002290,14:56:15.125675
0.165590,+0000003,-0000007,-0000004,+0000048,-0000092,+0004133,-0000830,+0000410,-0002290,14:56:15.125675
0.165923,+0000005,-0000018,-0000012,+0000037,-0000098,+0004154,-0000846,+0000420,-0002308,14:56:15.125675
0.166258,+0000014,-0000020,+0000008,+0000049,-0000095,+0004146,-0000846,+0000420,-0002308,14:56:15.125675
0.166589,+0000013,-0000039,-0000008,+0000031,-0000079,+0004136,-0000846,+0000420,-0002308,14:56:15.125675
0.166922,+0000015,-0000032,-0000010,+0000040,-0000103,+0004148,-0000830,+0000414,-0002292,14:56:15.125675
0.167259,+0000008,-0000026,-0000013,+0000048,-0000092,+0004155,-0000830,+0000414,-0002292,14:56:15.125675
0.167588,+0000005,-0000012,-0000005,+0000055,-0000111,+0004150,-0000830,+0000414,-0002292,14:56:15.125675
0.167921,+0000006,-0000018,-0000011,+0000029,-0000107,+0004142,-0000834,+0000408,-0002301,14:56:15.125675
0.168258,+0000021,-0000027,-0000010,+0000041,-0000093,+0004157,-0000834,+0000408,-0002301,14:56:15.125675
0.168587,+0000016,-0000031,-0000008,+0000046,-0000100,+0004168,-0000834,+0000408,-0002301,14:56:15.125675
0.168920,+0000016,-0000031,-0000007,+0000034,-0000096,+0004171,-0000836,+0000414,-0002324,14:56:15.125675
0.169257,+0000019,-0000028,-0000011,+0000033,-0000083,+0004150,-0000836,+0000414,-0002324,14:56:15.125675
0.169586,+0000013,-0000018,-0000004,+0000046,-0000112,+0004162,-0000836,+0000414,-0002324,14:56:15.125675
0.169919,+0000000,-0000007,+0000009,+0000031,-0000078,+0004170,-0000830,+0000418,-0002316,14:56:15.125675
0.170265,+0000016,-0000028,-0000014,+0000049,-0000093,+0004165,-0000830,+0000418,-0002316,14:56:15.125675
0.170585,+0000035,-0000031,-0000005,+0000042,-0000101,+0004139,-0000830,+0000418,-0002316,14:56:15.125675
0.170918,+0000005,-0000016,-0000008,+0000033,-0000101,+0004144,-0000820,+0000420,-0002325,14:56:15.125675
0.171264,+0000017,-0000019,-0000011,+0000032,-0000094,+0004162,-0000820,+0000420,-0002325,14:56:15.125675
0.171584,+0000013,-0000007,-0000008,+0000044,-0000087,+0004161,-0000820,+0000420,-0002325,14:56:15.125675
0.171917,+0000014,-0000013,+0000005,+0000044,-0000096,+0004148,-0000834,+0000406,-0002308,14:56:15.125675
0.172263,+0000019,-0000044,-0000016,+0000032,-0000110,+0004134,-0000834,+0000406,-0002308,14:56:15.125675
0.172583,+0000011,-0000023,-0000002,+0000040,-0000098,+0004147,-0000834,+0000406,-0002308,14:56:15.125675
0.172916,+0000025,-0000029,-0000014,+0000052,-0000095,+0004135,-0000838,+0000402,-0002314,14:56:15.125675
0.173262,+0000006,-0000023,-0000015,+0000045,-0000090,+0004151,-0000838,+0000402,-0002314,14:56:15.125675
0.173582,+0000021,-0000024,-0000015,+0000045,-0000107,+0004164,-0000838,+0000402,-0002314,14:56:15.125675
0.173915,+0000010,-0000016,+0000006,+0000049,-0000101,+0004136,-0000834,+0000404,-0002315,14:56:15.125675
0.174260,+0000029,-0000031,-0000014,+0000046,-0000088,+0004131,-0000834,+0000404,-0002315,14:56:15.125675
0.174581,+0000010,-0000031,-0000008,+0000051,-0000099,+0004154,-0000834,+0000404,-0002315,14:56:15.125675
0.174914,+0000024,-0000021,-0000010,+0000064,-0000091,+0004134,-0000842,+0000418,-0002310,14:56:15.125675
0.175247,+0000007,-0000004,-0000006,+0000057,-0000104,+0004157,-0000842,+0000418,-0002310,14:56:15.125675
0.175580,-0000004,-0000020,+0000002,+0000045,-0000090,+0004147,-0000842,+0000418,-0002310,14:56:15.125675
0.175913,+0000012,-0000018,-0000011,+0000068,-0000078,+0004146,-0000828,+0000398,-0002312,14:56:15.125675
0.176246,+0000024,-0000032,-0000008,+0000068,-0000088,+0004153,-0000828,+0000398,-0002312,14:56:15.125675
0.176579,+0000022,-0000032,-0000013,+0000034,-0000085,+0004140,-0000828,+0000398,-0002312,14:56:15.127683
0.176912,+0000011,-0000016,-0000002,+0000034,-0000076,+0004165,-0000836,+0000400,-0002288,14:56:15.127683
0.177245,+0000022,-0000019,-0000010,+0000064,-0000099,+0004142,-0000836,+0000400,-0002288,14:56:15.127683
0.177578,+0000003,+0000001,+0000000,+0000052,-0000115,+0004158,-0000836,+0000400,-0002288,14:56:15.127683
0.177911,+0000014,-0000036,-0000013,+0000047,-0000087,+0004145,-0000838,+0000408,-0002300,14:56:15.127683
0.178244,+0000016,-0000028,-0000005,+0000041,-0000103,+0004143,-0000838,+0000408,-0002300,14:56:15.127683
0.178577,+0000022,-0000024,-0000007,+0000050,-0000092,+0004141,-0000838,+0000408,-0002300,14:56:15.127683
0.178910,+0000018,-0000026,-0000013,+0000055,-0000102,+0004141,-0000852,+0000410,-0002332,14:56:15.127683
0.179243,+0000010,-0000015,-0000016,+0000038,-0000107,+0004150,-0000852,+0000410,-0002332,14:56:15.127683
0.179576,+0000005,-0000010,+0000003,+0000033,-0000105,+0004168,-0000852,+0000410,-0002332,14:56:15.127683
0.179909,+0000013,-0000034,-0000007,+0000040,-0000082,+0004164,-0000846,+0000390,-0002318,14:56:15.127683
0.180242,+0000030,-0000032,-0000007,+0000057,-0000080,+0004147,-0000846,+0000390,-0002318,14:56:15.127683
0.180575,+0000013,-0000029,-0000010,+0000038,-0000116,+0004174,-0000846,+0000390,-0002318,14:56:15.127683
0.180908,+0000021,-0000034,-0000019,+0000046,-0000101,+0004148,-0000828,+0000422,-0002321,14:56:15.127683
0.181241,+0000002,-0000014,+0000003,+0000044,-0000090,+0004140,-0000828,+0000422,-0002321,14:56:15.127683
0.181574,+0000016,-0000023,-0000016,+0000047,-0000097,+0004159,-0000828,+0000422,-0002321,14:56:15.127683
0.181907,+0000011,-0000012,-0000005,+0000031,-0000098,+0004143,-0000844,+0000412,-0002310,14:56:15.127683
0.182240,+0000008,-0000034,-0000008,+0000034,-0000101,+0004155,-0000844,+0000412,-0002310,14:56:15.127683
0.182573,+0000021,-0000040,-0000007,+0000046,-0000097,+0004154,-0000844,+0000412,-0002310,14:56:15.127683
0.182907,+0000016,-0000031,-0000020,+0000052,-0000076,+0004135,-0000848,+0000412,-0002312,14:56:15.127683
0.183239,+0000003,-0000020,+0000003,+0000048,-0000072,+0004153,-0000848,+0000412,-0002312,14:56:15.127683
0.183572,+0000008,-0000023,+0000005,+0000045,-0000080,+0004172,-0000848,+0000412,-0002312,14:56:15.127683
0.183905,+0000017,-0000039,-0000013,+0000035,-0000082,+0004134,-0000820,+0000392,-0002298,14:56:15.127683
0.184238,+0000018,-0000024,-0000016,+0000058,-0000097,+0004151,-0000820,+0000392,-0002298,14:56:15.127683
0.184571,+0000030,-0000036,-0000010,+0000054,-0000103,+0004153,-0000820,+0000392,-0002298,14:56:15.127683
0.184904,+0000005,-0000027,+0000001,+0000049,-0000098,+0004130,-0000828,+0000414,-0002312,14:56:15.127683
0.185237,-0000006,+0000013,-0000005,+0000046,-0000104,+0004127,-0000828,+0000414,-0002312,14:56:15.127683
0.185570,+0000022,-0000021,-0000011,+0000043,-0000099,+0004153,-0000828,+0000414,-0002312,14:56:15.127683
0.185903,+0000008,-0000039,-0000015,+0000050,-0000103,+0004153,-0000840,+0000406,-0002320,14:56:15.127683
0.186236,+0000026,-0000032,-0000007,+0000073,-0000111,+0004139,-0000840,+0000406,-0002320,14:56:15.127683
0.186569,+0000011,-0000035,-0000008,+0000049,-0000103,+0004145,-0000840,+0000406,-0002320,14:56:15.127683
0.186902,+0000005,-0000021,-0000010,+0000032,-0000108,+0004144,-0000836,+0000402,-0002301,14:56:15.127683
0.187235,+0000008,-0000013,-0000007,+0000056,-0000086,+0004130,-0000836,+0000402,-0002301,14:56:15.127683
0.187568,+0000005,-0000013,-0000007,+0000045,-0000103,+0004142,-0000836,+0000402,-0002301,14:56:15.127683
0.187901,+0000010,-0000035,-0000015,+0000024,-0000092,+0004150,-0000828,+0000408,-0002314,14:56:15.127683
0.188234,+0000029,-0000032,-0000014,+0000028,-0000089,+0004144,-0000828,+0000408,-0002314,14:56:15.127683
0.188567,+0000002,-0000016,-0000011,+0000006,-0000094,+0004153,-0000828,+0000408,-0002314,14:56:15.127683
0.188900,-0000003,-0000018,-0000017,+0000021,-0000099,+0004153,-0000822,+0000408,-0002302,14:56:15.127683
0.189233,+0000016,-0000019,-0000008,+0000030,-0000098,+0004126,-0000822,+0000408,-0002302,14:56:15.127683
0.189566,+0000008,-0000014,-0000005,+0000035,-0000105,+0004141,-0000822,+0000408,-0002302,14:56:15.127683
0.189899,+0000014,-0000032,-0000010,+0000047,-0000092,+0004143,-0000842,+0000420,-0002299,14:56:15.127683
0.190232,+0000022,-0000018,-0000005,+0000036,-0000085,+0004136,-0000842,+0000420,-0002299,14:56:15.127683
0.190565,+0000026,-0000035,-0000016,+0000038,-0000114,+0004137,-0000842,+0000420,-0002299,14:56:15.189346
0.190900,-0000001,-0000003,-0000004,+0000044,-0000109,+0004132,-0000834,+0000418,-0002291,14:56:15.189346
0.191233,+0000008,-0000010,-0000007,+0000036,-0000096,+0004139,-0000834,+0000418,-0002291,14:56:15.189346
0.191944,+0000008,-0000011,+0000000,+0000034,-0000101,+0004148,-0000834,+0000418,-0002291,14:56:15.189346
0.192343,-0000006,-0000005,-0000007,+0000030,-0000077,+0004142,-0000846,+0000420,-0002317,14:56:15.189346
0.192644,+0000014,-0000023,-0000019,+0000043,-0000089,+0004138,-0000846,+0000420,-0002317,14:56:15.189346
0.192911,+0000025,-0000034,-0000002,+0000045,-0000098,+0004156,-0000846,+0000420,-0002317,14:56:15.189346
0.193231,+0000013,-0000022,-0000013,+0000048,-0000083,+0004163,-0000838,+0000412,-0002294,14:56:15.189346
0.193563,+0000005,-0000024,-0000011,+0000057,-0000108,+0004161,-0000838,+0000412,-0002294,14:56:15.189346
0.193947,+0000019,-0000032,-0000008,+0000038,-0000090,+0004154,-0000838,+0000412,-0002294,14:56:15.189346
0.194228,+0000016,-0000032,-0000010,+0000052,-0000076,+0004169,-0000854,+0000412,-0002284,14:56:15.189346
0.194628,+0000009,-0000010,-0000006,+0000069,-0000088,+0004152,-0000854,+0000412,-0002284,14:56:15.189346
0.195120,+0000010,-0000032,-0000019,+0000040,-0000104,+0004166,-0000854,+0000412,-0002284,14:56:15.189346
0.195312,+0000018,-0000021,-0000016,+0000027,-0000076,+0004148,-0000846,+0000412,-0002299,14:56:15.189346
0.195557,+0000018,-0000029,-0000008,+0000049,-0000083,+0004181,-0000846,+0000412,-0002299,14:56:15.189346
0.196035,+0000019,-0000035,-0000004,+0000053,-0000085,+0004165,-0000846,+0000412,-0002299,14:56:15.189346
0.196226,+0000016,-0000034,-0000008,+0000029,-0000085,+0004165,-0000830,+0000422,-0002295,14:56:15.189346
0.196559,+0000016,-0000016,-0000015,+0000042,-0000076,+0004154,-0000830,+0000422,-0002295,14:56:15.189346
0.196893,+0000011,-0000008,-0000019,+0000050,-0000092,+0004153,-0000830,+0000422,-0002295,14:56:15.189346
0.197225,-0000001,-0000002,-0000011,+0000038,-0000068,+0004140,-0000838,+0000424,-0002313,14:56:15.189346
0.197560,+0000027,-0000031,-0000006,+0000054,-0000101,+0004151,-0000838,+0000424,-0002313,14:56:15.189346
0.197892,+0000004,-0000015,-0000003,+0000058,-0000090,+0004148,-0000838,+0000424,-0002313,14:56:15.189346
0.198224,+0000029,-0000045,-0000021,+0000032,-0000111,+0004151,-0000830,+0000416,-0002302,14:56:15.189346
0.198557,+0000009,-0000026,-0000006,+0000032,-0000071,+0004151,-0000830,+0000416,-0002302,14:56:15.189346
0.198891,+0000004,+0000006,-0000014,+0000019,-0000091,+0004149,-0000830,+0000416,-0002302,14:56:15.189346
0.199225,+0000004,-0000021,-0000003,+0000042,-0000106,+0004148,-0000854,+0000394,-0002310,14:56:15.189346
0.199558,+0000016,-0000028,-0000007,+0000042,-0000104,+0004146,-0000854,+0000394,-0002310,14:56:15.189346
0.199889,+0000032,-0000037,-0000013,+0000018,-0000109,+0004141,-0000854,+0000394,-0002310,14:56:15.189346
0.200222,+0000014,-0000027,-0000013,+0000036,-0000098,+0004141,-0000834,+0000408,-0002291,14:56:15.189346
0.200555,+0000019,-0000013,-0000015,+0000029,-0000109,+0004145,-0000834,+0000408,-0002291,14:56:15.189346
0.200888,+0000002,+0000001,-0000005,+0000047,-0000099,+0004135,-0000834,+0000408,-0002291,14:56:15.189346
0.201221,+0000013,-0000029,-0000021,+0000042,-0000109,+0004130,-0000834,+0000412,-0002298,14:56:15.189346
0.201554,+0000007,-0000016,-0000002,+0000023,-0000100,+0004145,-0000834,+0000412,-0002298,14:56:15.189346
0.201887,+0000025,-0000042,+0000001,+0000046,-0000097,+0004131,-0000834,+0000412,-0002298,14:56:15.189346
0.202220,+0000022,-0000018,-0000003,+0000040,-0000084,+0004140,-0000826,+0000416,-0002315,14:56:15.189346
0.202553,+0000000,-0000010,-0000002,+0000052,-0000106,+0004147,-0000826,+0000416,-0002315,14:56:15.189346
0.202886,+0000013,-0000008,-0000011,+0000040,-0000084,+0004128,-0000826,+0000416,-0002315,14:56:15.189346
0.203219,+0000008,-0000020,-0000006,+0000045,-0000092,+0004140,-0000838,+0000402,-0002287,14:56:15.189346
0.203552,+0000025,-0000027,-0000003,+0000046,-0000095,+0004153,-0000838,+0000402,-0002287,14:56:15.189346
0.203885,+0000017,-0000029,-0000013,+0000030,-0000111,+0004142,-0000838,+0000402,-0002287,14:56:15.189346
0.204218,+0000009,-0000018,-0000005,+0000053,-0000089,+0004151,-0000840,+0000398,-0002310,14:56:15.189346
0.204551,+0000002,-0000027,-0000010,+0000035,-0000096,+0004149,-0000840,+0000398,-0002310,14:56:15.189346
0.204884,-0000001,-0000007,-0000008,+0000051,-0000100,+0004162,-0000840,+0000398,-0002310,14:56:15.189346
0.205217,+0000014,-0000018,-0000005,+0000048,-0000094,+0004150,-0000854,+0000412,-0002316,14:56:15.189346
0.205550,+0000011,-0000028,-0000003,+0000053,-0000085,+0004132,-0000854,+0000412,-0002316,14:56:15.189346
0.205883,+0000014,-0000031,-0000013,+0000041,-0000092,+0004157,-0000854,+0000412,-0002316,14:56:15.189346
0.206216,+0000022,-0000031,-0000005,+0000048,-0000085,+0004171,-0000842,+0000402,-0002313,14:56:15.189346
0.206549,+0000003,-0000013,-0000014,+0000057,-0000082,+0004137,-0000842,+0000402,-0002313,14:56:15.189346
0.206882,+0000007,-0000008,-0000010,+0000008,-0000095,+0004141,-0000842,+0000402,-0002313,14:56:15.189346
0.207215,+0000010,-0000027,-0000008,+0000036,-0000072,+0004140,-0000832,+0000414,-0002321,14:56:15.189346
0.207548,+0000017,-0000035,-0000002,+0000038,-0000097,+0004154,-0000832,+0000414,-0002321,14:56:15.189346
0.207881,+0000020,-0000026,-0000019,+0000047,-0000100,+0004161,-0000832,+0000414,-0002321,14:56:15.189346
0.208214,+0000013,-0000026,-0000008,+0000035,-0000083,+0004149,-0000828,+0000422,-0002296,14:56:15.190353
0.208547,+0000018,-0000019,+0000003,+0000034,-0000088,+0004135,-0000828,+0000422,-0002296,14:56:15.190353
0.209170,+0000013,-0000015,-0000022,+0000056,-0000082,+0004154,-0000828,+0000422,-0002296,14:56:15.190353
0.209368,+0000013,-0000015,-0000022,+0000056,-0000082,+0004154,-0000838,+0000404,-0002317,14:56:15.190353
0.209569,+0000004,-0000019,+0000003,+0000046,-0000122,+0004150,-0000838,+0000404,-0002317,14:56:15.191352
0.209879,+0000010,-0000013,-0000010,+0000060,-0000089,+0004147,-0000838,+0000404,-0002317,14:56:15.191352
0.210212,-0000003,-0000016,-0000019,+0000041,-0000080,+0004152,-0000832,+0000408,-0002287,14:56:15.191352
0.210545,+0000013,-0000013,+0000000,+0000046,-0000101,+0004156,-0000832,+0000408,-0002287,14:56:15.191352
0.210878,-0000003,+0000012,-0000005,+0000044,-0000090,+0004174,-0000832,+0000408,-0002287,14:56:15.191352
0.211211,+0000013,-0000028,-0000011,+0000052,-0000100,+0004134,-0000848,+0000412,-0002312,14:56:15.191352
0.211544,+0000019,-0000031,-0000002,+0000041,-0000084,+0004167,-0000848,+0000412,-0002312,14:56:15.191352
0.211877,+0000036,-0000040,-0000020,+0000047,-0000107,+0004162,-0000848,+0000412,-0002312,14:56:15.191352
0.212210,+0000003,-0000020,-0000021,+0000056,-0000105,+0004153,-0000844,+0000414,-0002306,14:56:15.191352
0.212543,+0000003,+0000000,-0000017,+0000036,-0000090,+0004171,-0000844,+0000414,-0002306,14:56:15.191352
0.212876,-0000007,-0000018,+0000008,+0000030,-0000099,+0004152,-0000844,+0000414,-0002306,14:56:15.191352
0.213209,+0000030,-0000042,-0000015,+0000048,-0000078,+0004157,-0000840,+0000406,-0002316,14:56:15.191352
0.213542,+0000015,-0000036,-0000005,+0000046,-0000091,+0004154,-0000840,+0000406,-0002316,14:56:15.191352
0.213875,+0000019,-0000019,+0000001,+0000033,-0000090,+0004162,-0000840,+0000406,-0002316,14:56:15.191352
0.214208,+0000005,-0000010,-0000008,+0000043,-0000089,+0004158,-0000834,+0000402,-0002265,14:56:15.191352
0.214541,+0000002,-0000016,-0000008,+0000045,-0000078,+0004154,-0000834,+0000402,-0002265,14:56:15.191352
0.214874,+0000016,-0000021,-0000004,+0000037,-0000105,+0004153,-0000834,+0000402,-0002265,14:56:15.191352
0.215207,+0000019,-0000030,-0000002,+0000055,-0000098,+0004150,-0000836,+0000418,-0002300,14:56:15.191352
0.215540,+0000035,-0000032,-0000013,+0000046,-0000081,+0004149,-0000836,+0000418,-0002300,14:56:15.191352
0.215873,+0000013,-0000010,-0000002,+0000025,-0000085,+0004161,-0000836,+0000418,-0002300,14:56:15.191352
0.216206,-0000003,-0000013,-0000013,+0000036,-0000094,+0004171,-0000842,+0000416,-0002270,14:56:15.191352
0.216539,+0000030,-0000018,-0000013,+0000046,-0000088,+0004142,-0000842,+0000416,-0002270,14:56:15.191352
0.216872,-0000005,-0000007,+0000001,+0000027,-0000103,+0004127,-0000842,+0000416,-0002270,14:56:15.191352
0.217205,+0000029,-0000045,-0000013,+0000034,-0000115,+0004155,-0000814,+0000408,-0002286,14:56:15.191352
0.217538,+0000015,-0000008,-0000004,+0000046,-0000081,+0004134,-0000814,+0000408,-0002286,14:56:15.191352
0.217871,+0000011,-0000024,-0000010,+0000031,-0000071,+0004159,-0000814,+0000408,-0002286,14:56:15.191352
0.218204,+0000021,-0000020,-0000021,+0000046,-0000078,+0004153,-0000832,+0000432,-0002309,14:56:15.191352
0.218537,+0000002,-0000018,-0000002,+0000028,-0000089,+0004124,-0000832,+0000432,-0002309,14:56:15.191352
0.218870,+0000008,-0000018,-0000011,+0000030,-0000086,+0004176,-0000832,+0000432,-0002309,14:56:15.191352
0.219203,+0000030,-0000032,-0000016,+0000049,-0000093,+0004143,-0000840,+0000412,-0002282,14:56:15.191352
0.219536,+0000013,-0000031,+0000005,+0000042,-0000109,+0004149,-0000840,+0000412,-0002282,14:56:15.191352
0.219869,+0000009,-0000028,-0000019,+0000027,-0000091,+0004153,-0000840,+0000412,-0002282,14:56:15.191352
0.220202,+0000008,-0000012,-0000002,+0000039,-0000108,+0004166,-0000846,+0000406,-0002302,14:56:15.191352
0.220535,+0000013,-0000016,-0000013,+0000041,-0000107,+0004147,-0000846,+0000406,-0002302,14:56:15.191352
0.220868,+0000011,-0000013,-0000004,+0000038,-0000083,+0004157,-0000846,+0000406,-0002302,14:56:15.191352
0.221201,+0000016,-0000045,-0000005,+0000049,-0000120,+0004172,-0000846,+0000402,-0002300,14:56:15.191352
0.221534,+0000012,-0000035,-0000011,+0000035,-0000115,+0004153,-0000846,+0000402,-0002300,14:56:15.191352
0.221867,+0000014,-0000015,-0000015,+0000040,-0000114,+0004140,-0000846,+0000402,-0002300,14:56:15.191352
0.222200,+0000013,-0000018,-0000016,+0000036,-0000088,+0004140,-0000846,+0000414,-0002289,14:56:15.191352
0.222533,-0000002,-0000005,+0000005,+0000040,-0000103,+0004138,-0000846,+0000414,-0002289,14:56:15.191352
0.222866,+0000005,-0000002,-0000015,+0000030,-0000082,+0004156,-0000846,+0000414,-0002289,14:56:15.191352
0.223199,+0000027,-0000047,-0000005,+0000053,-0000103,+0004176,-0000852,+0000396,-0002308,14:56:15.191352
0.223532,+0000019,-0000032,-0000014,+0000032,-0000112,+0004144,-0000852,+0000396,-0002308,14:56:15.191352
0.223865,+0000021,-0000013,-0000007,+0000038,-0000093,+0004148,-0000852,+0000396,-0002308,14:56:15.191352
0.224198,+0000016,-0000031,-0000008,+0000039,-0000109,+0004162,-0000848,+0000406,-0002314,14:56:15.191352
0.224531,+0000007,-0000023,+0000000,+0000010,-0000054,+0004138,-0000848,+0000406,-0002314,14:56:15.191352
0.224864,+0000021,-0000020,-0000014,+0000051,-0000085,+0004148,-0000848,+0000406,-0002314,14:56:15.191352
0.225197,+0000021,-0000039,-0000013,+0000050,-0000107,+0004151,-0000844,+0000402,-0002312,14:56:15.191352
0.225530,+0000030,-0000034,-0000008,+0000029,-0000095,+0004162,-0000844,+0000402,-0002312,14:56:15.191352
0.225863,+0000003,-0000018,-0000015,+0000038,-0000100,+0004154,-0000844,+0000402,-0002312,14:56:15.191352
0.226196,+0000011,+0000000,-0000005,+0000036,-0000104,+0004153,-0000836,+0000408,-0002309,14:56:15.191352
0.226529,-0000003,-0000022,-0000002,+0000052,-0000105,+0004157,-0000836,+0000408,-0002309,14:56:15.191352
0.226862,+0000035,-0000035,-0000010,+0000043,-0000095,+0004150,-0000836,+0000408,-0002309,14:56:15.191352
0.227195,+0000022,-0000030,-0000005,+0000055,-0000101,+0004145,-0000854,+0000422,-0002287,14:56:15.191352
0.227528,+0000029,-0000042,-0000015,+0000056,-0000105,+0004146,-0000854,+0000422,-0002287,14:56:15.191352
0.227861,+0000000,+0000008,-0000013,+0000060,-0000101,+0004147,-0000854,+0000422,-0002287,14:56:15.191352
0.228194,+0000000,-0000016,+0000001,+0000037,-0000080,+0004151,-0000842,+0000418,-0002311,14:56:15.191352
0.228527,+0000016,-0000014,-0000015,+0000042,-0000093,+0004170,-0000842,+0000418,-0002311,14:56:15.191352
0.228860,+0000027,-0000034,-0000016,+0000031,-0000101,+0004160,-0000842,+0000418,-0002311,14:56:15.191352
0.229193,+0000019,-0000040,-0000002,+0000049,-0000086,+0004154,-0000834,+0000406,-0002289,14:56:15.191352
0.229526,+0000035,-0000008,-0000007,+0000035,-0000082,+0004169,-0000834,+0000406,-0002289,14:56:15.191352
0.229859,+0000016,-0000032,-0000016,+0000043,-0000060,+0004141,-0000834,+0000406,-0002289,14:56:15.191352
0.230192,+0000008,-0000012,-0000008,+0000042,-0000082,+0004155,-0000830,+0000426,-0002333,14:56:15.191352
0.230525,+0000008,-0000018,-0000004,+0000048,-0000090,+0004180,-0000830,+0000426,-0002333,14:56:15.191352
0.230858,+0000030,-0000039,-0000011,+0000020,-0000088,+0004149,-0000830,+0000426,-0002333,14:56:15.191352
0.231191,+0000017,-0000026,-0000010,+0000050,-0000085,+0004155,-0000820,+0000418,-0002297,14:56:15.191352
0.231524,+0000014,-0000024,-0000016,+0000037,-0000103,+0004152,-0000820,+0000418,-0002297,14:56:15.191352
0.231857,+0000013,-0000005,+0000009,+0000025,-0000110,+0004160,-0000820,+0000418,-0002297,14:56:15.191352
0.232190,+0000000,-0000018,-0000016,+0000038,-0000107,+0004146,-0000838,+0000420,-0002308,14:56:15.191352
0.232523,+0000010,-0000031,-0000001,+0000057,-0000075,+0004136,-0000838,+0000420,-0002308,14:56:15.191352
0.232856,+0000008,-0000031,-0000013,+0000050,-0000105,+0004124,-0000838,+0000420,-0002308,14:56:15.191352
0.233189,+0000003,-0000030,+0000000,+0000053,-0000081,+0004139,-0000860,+0000412,-0002317,14:56:15.191352
0.233522,+0000016,-0000018,-0000019,+0000059,-0000082,+0004152,-0000860,+0000412,-0002317,14:56:15.191352
0.233855,+0000000,-0000023,-0000013,+0000040,-0000102,+0004164,-0000860,+0000412,-0002317,14:56:15.191352
0.234188,+0000019,-0000007,-0000005,+0000036,-0000080,+0004140,-0000842,+0000428,-0002293,14:56:15.191352
0.234521,+0000003,-0000034,-0000004,+0000042,-0000101,+0004160,-0000842,+0000428,-0002293,14:56:15.191352
0.234854,+0000027,-0000035,-0000014,+0000035,-0000083,+0004149,-0000842,+0000428,-0002293,14:56:15.191352
0.235187,+0000014,-0000036,-0000006,+0000050,-0000099,+0004162,-0000832,+0000408,-0002290,14:56:15.191352
0.235520,+0000003,-0000024,-0000006,+0000044,-0000084,+0004141,-0000832,+0000408,-0002290,14:56:15.191352
0.235853,+0000022,-0000026,-0000013,+0000047,-0000081,+0004146,-0000832,+0000408,-0002290,14:56:15.191352
0.236186,-0000005,-0000018,-0000008,+0000064,-0000101,+0004161,-0000842,+0000426,-0002281,14:56:15.191352
0.236519,+0000011,-0000021,+0000003,+0000044,-0000088,+0004153,-0000842,+0000426,-0002281,14:56:15.191352
0.236852,+0000023,-0000026,-0000011,+0000041,-0000082,+0004134,-0000842,+0000426,-0002281,14:56:15.191352
0.237185,+0000014,-0000026,-0000015,+0000041,-0000094,+0004133,-0000844,+0000420,-0002291,14:56:15.191352
0.237518,+0000014,-0000036,-0000005,+0000040,-0000091,+0004134,-0000844,+0000420,-0002291,14:56:15.191352
0.237851,+0000010,-0000013,-0000011,+0000045,-0000114,+0004143,-0000844,+0000420,-0002291,14:56:15.191352
0.238184,+0000010,-0000022,-0000008,+0000036,-0000105,+0004151,-0000840,+0000428,-0002330,14:56:15.191352
0.238517,+0000013,-0000016,-0000002,+0000025,-0000114,+0004124,-0000840,+0000428,-0002330,14:56:15.191352
0.238850,+0000019,-0000037,-0000010,+0000039,-0000113,+0004138,-0000840,+0000428,-0002330,14:56:15.191352
0.239183,+0000022,-0000042,-0000007,+0000014,-0000100,+0004160,-0000844,+0000424,-0002329,14:56:15.191352
0.239516,+0000011,-0000026,-0000019,+0000053,-0000109,+0004151,-0000844,+0000424,-0002329,14:56:15.191352
0.239849,+0000000,-0000010,+0000001,+0000036,-0000098,+0004129,-0000844,+0000424,-0002329,14:56:15.191352
0.240182,+0000008,-0000016,-0000004,+0000042,-0000091,+0004137,-0000842,+0000414,-0002315,14:56:15.191352
0.240515,+0000016,-0000029,-0000008,+0000044,-0000110,+0004134,-0000842,+0000414,-0002315,14:56:15.191352
0.240850,+0000029,-0000039,-0000019,+0000057,-0000084,+0004158,-0000842,+0000414,-0002315,14:56:15.223666
0.241184,+0000019,-0000035,-0000006,+0000033,-0000103,+0004135,-0000816,+0000416,-0002301,14:56:15.223666
0.241518,+0000002,+0000003,+0000008,+0000049,-0000091,+0004143,-0000816,+0000416,-0002301,14:56:15.223666
0.242088,+0000021,-0000028,-0000007,+0000049,-0000097,+0004151,-0000816,+0000416,-0002301,14:56:15.223666
0.242317,+0000021,-0000028,-0000007,+0000038,-0000090,+0004151,-0000848,+0000414,-0002276,14:56:15.223666
0.242541,+0000000,-0000023,-0000010,+0000038,-0000090,+0004151,-0000848,+0000414,-0002276,14:56:15.223666
0.243055,+0000003,-0000028,-0000002,+0000060,-0000112,+0004151,-0000848,+0000414,-0002276,14:56:15.223666
0.243239,+0000015,-0000016,-0000005,+0000054,-0000094,+0004146,-0000846,+0000410,-0002289,14:56:15.223666
0.243515,-0000008,-0000016,-0000007,+0000063,-0000085,+0004147,-0000846,+0000410,-0002289,14:56:15.223666
0.243847,+0000019,-0000029,+0000000,+0000042,-0000073,+0004164,-0000846,+0000410,-0002289,14:56:15.223666
0.244179,+0000011,-0000018,-0000004,+0000036,-0000089,+0004156,-0000848,+0000408,-0002293,14:56:15.223666
0.244511,+0000025,-0000042,-0000008,+0000060,-0000096,+0004138,-0000848,+0000408,-0002293,14:56:15.223666
0.244844,+0000022,-0000032,-0000010,+0000038,-0000105,+0004151,-0000848,+0000408,-0002293,14:56:15.223666
0.245177,+0000025,-0000027,-0000012,+0000034,-0000103,+0004155,-0000836,+0000434,-0002282,14:56:15.223666
0.245510,-0000003,-0000008,-0000010,+0000055,-0000101,+0004151,-0000836,+0000434,-0002282,14:56:15.223666
0.245848,+0000002,-0000007,+0000004,+0000056,-0000099,+0004155,-0000836,+0000434,-0002282,14:56:15.223666
0.246178,+0000027,-0000036,-0000018,+0000048,-0000109,+0004136,-0000850,+0000398,-0002295,14:56:15.223666
0.246509,+0000017,-0000032,-0000004,+0000050,-0000107,+0004146,-0000850,+0000398,-0002295,14:56:15.223666
0.246842,+0000024,-0000039,-0000019,+0000046,-0000112,+0004152,-0000850,+0000398,-0002295,14:56:15.223666
0.247175,+0000021,-0000013,+0000000,+0000043,-0000104,+0004136,-0000842,+0000432,-0002307,14:56:15.223666
0.247508,+0000008,-0000010,-0000011,+0000057,-0000096,+0004153,-0000842,+0000432,-0002307,14:56:15.223666
0.247841,+0000008,-0000007,-0000011,+0000045,-0000100,+0004152,-0000842,+0000432,-0002307,14:56:15.223666
0.248174,+0000016,-0000024,-0000005,+0000048,-0000083,+0004164,-0000848,+0000412,-0002291,14:56:15.223666
0.248507,+0000017,-0000037,-0000012,+0000048,-0000091,+0004149,-0000848,+0000412,-0002291,14:56:15.223666
0.248840,+0000013,-0000032,-0000012,+0000033,-0000092,+0004156,-0000848,+0000412,-0002291,14:56:15.223666
0.249173,+0000019,-0000042,-0000005,+0000021,-0000101,+0004156,-0000832,+0000428,-0002283,14:56:15.223666
0.249506,+0000024,-0000007,-0000015,+0000049,-0000102,+0004148,-0000832,+0000428,-0002283,14:56:15.223666
0.249839,+0000007,-0000012,-0000002,+0000045,-0000104,+0004162,-0000832,+0000428,-0002283,14:56:15.223666
0.250172,+0000014,-0000015,+0000004,+0000032,-0000070,+0004147,-0000844,+0000420,-0002274,14:56:15.223666
0.250505,+0000036,-0000029,-0000013,+0000042,-0000101,+0004168,-0000844,+0000420,-0002274,14:56:15.223666
0.250838,+0000008,-0000034,+0000001,+0000035,-0000109,+0004157,-0000844,+0000420,-0002274,14:56:15.223666
0.251171,+0000030,-0000034,-0000031,+0000041,-0000108,+0004162,-0000832,+0000434,-0002312,14:56:15.223666
0.251504,+0000002,-0000004,-0000007,+0000047,-0000114,+0004168,-0000832,+0000434,-0002312,14:56:15.223666
0.251837,+0000008,-0000015,-0000003,+0000055,-0000101,+0004160,-0000832,+0000434,-0002312,14:56:15.223666
0.252170,+0000033,-0000035,-0000022,+0000048,-0000072,+0004174,-0000846,+0000416,-0002320,14:56:15.223666
0.252503,+0000013,-0000029,+0000002,+0000040,-0000081,+0004153,-0000846,+0000416,-0002320,14:56:15.223666
0.252836,+0000033,-0000042,-0000018,+0000031,-0000105,+0004137,-0000846,+0000416,-0002320,14:56:15.223666
0.253169,+0000021,-0000023,-0000016,+0000056,-0000083,+0004184,-0000846,+0000416,-0002300,14:56:15.223666
0.253502,+0000011,+0000005,+0000000,+0000042,-0000086,+0004169,-0000846,+0000416,-0002300,14:56:15.224671
0.253835,+0000002,-0000019,-0000008,+0000053,-0000089,+0004141,-0000846,+0000416,-0002300,14:56:15.224671
0.254168,+0000027,-0000042,-0000006,+0000044,-0000092,+0004134,-0000828,+0000414,-0002263,14:56:15.224671
0.254501,+0000019,-0000034,-0000008,+0000025,-0000108,+0004141,-0000828,+0000414,-0002263,14:56:15.224671
0.254834,+0000003,-0000029,-0000008,+0000048,-0000089,+0004155,-0000828,+0000414,-0002263,14:56:15.225670
0.255167,+0000005,-0000016,+0000003,+0000042,-0000085,+0004145,-0000850,+0000408,-0002281,14:56:15.225670
0.255500,+0000007,-0000024,-0000030,+0000040,-0000096,+0004173,-0000850,+0000408,-0002281,14:56:15.225670
0.255833,-0000005,-0000007,+0000009,+0000054,-0000080,+0004168,-0000850,+0000408,-0002281,14:56:15.225670
0.256166,+0000030,-0000037,-0000013,+0000047,-0000090,+0004146,-0000848,+0000420,-0002279,14:56:15.225670
0.256499,+0000019,-0000032,-0000010,+0000064,-0000102,+0004137,-0000848,+0000420,-0002279,14:56:15.225670
0.256832,+0000016,-0000023,-0000004,+0000049,-0000088,+0004160,-0000848,+0000420,-0002279,14:56:15.225670
0.257165,+0000005,-0000008,+0000000,+0000052,-0000091,+0004136,-0000824,+0000418,-0002294,14:56:15.225670
0.257498,+0000015,-0000010,-0000005,+0000042,-0000084,+0004153,-0000824,+0000418,-0002294,14:56:15.225670
0.257831,+0000008,-0000026,-0000008,+0000037,-0000095,+0004139,-0000824,+0000418,-0002294,14:56:15.225670
0.258216,+0000028,-0000045,-0000004,+0000029,-0000112,+0004140,-0000846,+0000408,-0002293,14:56:15.225670
0.258497,+0000013,-0000003,-0000014,+0000016,-0000100,+0004152,-0000846,+0000408,-0002293,14:56:15.225670
0.258830,+0000011,-0000018,-0000010,+0000051,-0000094,+0004146,-0000846,+0000408,-0002293,14:56:15.225670
0.259234,+0000011,-0000026,+0000001,+0000051,-0000102,+0004157,-0000854,+0000412,-0002291,14:56:15.225670
0.259496,+0000008,-0000015,-0000011,+0000041,-0000096,+0004166,-0000854,+0000412,-0002291,14:56:15.226670
0.259829,+0000017,-0000023,-0000011,+0000032,-0000095,+0004159,-0000854,+0000412,-0002291,14:56:15.226670
0.260242,+0000019,-0000044,-0000008,+0000044,-0000101,+0004156,-0000842,+0000406,-0002305,14:56:15.226670
0.260521,+0000014,-0000027,-0000008,+0000052,-0000101,+0004137,-0000842,+0000406,-0002305,14:56:15.226670
0.260831,+0000017,-0000024,-0000013,+0000042,-0000111,+0004149,-0000842,+0000406,-0002305,14:56:15.226670
0.261163,+0000012,-0000043,-0000010,+0000031,-0000096,+0004152,-0000852,+0000404,-0002320,14:56:15.226670
0.261495,+0000027,-0000015,-0000005,+0000033,-0000099,+0004153,-0000852,+0000404,-0002320,14:56:15.226670
0.261827,+0000010,-0000031,-0000007,+0000042,-0000123,+0004155,-0000852,+0000404,-0002320,14:56:15.226670
0.262160,+0000017,-0000031,-0000006,+0000055,-0000082,+0004164,-0000856,+0000416,-0002279,14:56:15.226670
0.262494,+0000011,-0000026,-0000004,+0000034,-0000093,+0004157,-0000856,+0000416,-0002279,14:56:15.226670
0.262826,+0000028,-0000024,-0000018,+0000037,-0000096,+0004154,-0000856,+0000416,-0002279,14:56:15.226670
0.263159,-0000008,-0000019,-0000002,+0000037,-0000075,+0004153,-0000854,+0000420,-0002310,14:56:15.226670
0.263493,+0000008,-0000007,-0000010,+0000043,-0000076,+0004164,-0000854,+0000420,-0002310,14:56:15.226670
0.263826,+0000000,-0000018,-0000005,+0000036,-0000092,+0004153,-0000854,+0000420,-0002310,14:56:15.226670
0.264158,+0000027,-0000037,-0000013,+0000042,-0000084,+0004161,-0000838,+0000420,-0002301,14:56:15.226670
0.264491,+0000025,-0000040,-0000005,+0000046,-0000077,+0004147,-0000838,+0000420,-0002301,14:56:15.226670
0.264824,+0000027,-0000020,-0000021,+0000053,-0000097,+0004160,-0000838,+0000420,-0002301,14:56:15.226670
0.265157,+0000004,-0000018,-0000008,+0000061,-0000090,+0004129,-0000858,+0000400,-0002274,14:56:15.226670
0.265490,+0000008,-0000005,-0000007,+0000042,-0000095,+0004143,-0000858,+0000400,-0002274,14:56:15.226670
0.265823,+0000011,-0000018,-0000008,+0000039,-0000094,+0004151,-0000858,+0000400,-0002274,14:56:15.226670
0.266156,+0000026,-0000050,-0000008,+0000066,-0000100,+0004168,-0000842,+0000412,-0002295,14:56:15.226670
0.266489,+0000007,-0000027,-0000010,+0000058,-0000092,+0004156,-0000842,+0000412,-0002295,14:56:15.226670
0.266822,+0000016,-0000031,-0000012,+0000045,-0000098,+0004146,-0000842,+0000412,-0002295,14:56:15.226670
0.267155,-0000002,-0000003,+0000000,+0000031,-0000099,+0004150,-0000850,+0000404,-0002296,14:56:15.226670
0.267488,+0000005,-0000021,-0000013,+0000032,-0000090,+0004155,-0000850,+0000404,-0002296,14:56:15.226670
0.267821,+0000018,-0000035,-0000011,+0000052,-0000107,+0004164,-0000850,+0000404,-0002296,14:56:15.226670
0.268154,+0000018,-0000037,-0000004,+0000040,-0000107,+0004150,-0000828,+0000408,-0002295,14:56:15.226670
0.268487,+0000021,-0000034,-0000016,+0000047,-0000078,+0004145,-0000828,+0000408,-0002295,14:56:15.226670
0.268820,+0000005,-0000011,-0000010,+0000044,-0000089,+0004153,-0000828,+0000408,-0002295,14:56:15.226670
0.269153,+0000014,-0000008,-0000007,+0000037,-0000091,+0004150,-0000844,+0000422,-0002283,14:56:15.226670
0.269486,+0000013,-0000037,-0000013,+0000044,-0000086,+0004143,-0000844,+0000422,-0002283,14:56:15.226670
0.269819,+0000019,-0000012,+0000003,+0000041,-0000115,+0004160,-0000844,+0000422,-0002283,14:56:15.226670
0.270152,+0000025,-0000040,-0000010,+0000049,-0000096,+0004148,-0000838,+0000420,-0002298,14:56:15.226670
0.270485,+0000019,-0000010,-0000014,+0000048,-0000101,+0004138,-0000838,+0000420,-0002298,14:56:15.226670
0.270818,+0000002,-0000015,-0000007,+0000045,-0000105,+0004134,-0000838,+0000420,-0002298,14:56:15.226670
0.271151,+0000006,-0000012,-0000011,+0000058,-0000102,+0004138,-0000834,+0000418,-0002312,14:56:15.226670
0.271484,+0000000,-0000015,+0000001,+0000045,-0000100,+0004142,-0000834,+0000418,-0002312,14:56:15.226670
0.271817,+0000019,-0000032,-0000007,+0000055,-0000116,+0004138,-0000834,+0000418,-0002312,14:56:15.226670
0.272150,+0000024,-0000012,-0000003,+0000061,-0000097,+0004146,-0000832,+0000418,-0002301,14:56:15.226670
0.272483,+0000010,-0000016,-0000007,+0000046,-0000108,+0004146,-0000832,+0000418,-0002301,14:56:15.226670
0.272816,+0000014,-0000011,-0000008,+0000038,-0000066,+0004143,-0000832,+0000418,-0002301,14:56:15.226670
0.273149,+0000002,-0000018,-0000002,+0000056,-0000085,+0004156,-0000834,+0000432,-0002308,14:56:15.226670
0.273482,+0000004,-0000011,-0000007,+0000053,-0000111,+0004161,-0000834,+0000432,-0002308,14:56:15.226670
0.273815,+0000013,-0000045,-0000004,+0000045,-0000114,+0004160,-0000834,+0000432,-0002308,14:56:15.226670
0.274148,+0000008,-0000023,-0000005,+0000043,-0000105,+0004140,-0000840,+0000404,-0002288,14:56:15.226670
0.274481,+0000014,-0000024,-0000005,+0000022,-0000096,+0004140,-0000840,+0000404,-0002288,14:56:15.226670
0.274814,-0000003,-0000021,-0000007,+0000037,-0000097,+0004147,-0000840,+0000404,-0002288,14:56:15.226670
0.275147,+0000027,-0000008,-0000004,+0000042,-0000108,+0004151,-0000844,+0000412,-0002300,14:56:15.226670
0.275480,-0000011,-0000016,+0000001,+0000052,-0000078,+0004145,-0000844,+0000412,-0002300,14:56:15.226670
0.275813,+0000013,-0000021,-0000004,+0000044,-0000106,+0004150,-0000844,+0000412,-0002300,14:56:15.226670
0.276146,+0000022,-0000045,-0000010,+0000043,-0000095,+0004147,-0000842,+0000430,-0002313,14:56:15.226670
0.276479,+0000013,-0000021,-0000010,+0000030,-0000107,+0004137,-0000842,+0000430,-0002313,14:56:15.226670
0.276812,+0000020,-0000018,-0000007,+0000022,-0000095,+0004162,-0000842,+0000430,-0002313,14:56:15.226670
0.277145,-0000008,+0000001,+0000007,+0000050,-0000099,+0004140,-0000848,+0000434,-0002290,14:56:15.226670
0.277478,+0000014,-0000002,-0000008,+0000041,-0000080,+0004158,-0000848,+0000434,-0002290,14:56:15.226670
0.277811,+0000007,-0000031,-0000010,+0000056,-0000101,+0004144,-0000848,+0000434,-0002290,14:56:15.226670
0.278144,+0000043,-0000042,-0000018,+0000049,-0000083,+0004144,-0000838,+0000410,-0002292,14:56:15.226670
0.278477,+0000008,-0000021,-0000010,+0000040,-0000086,+0004156,-0000838,+0000410,-0002292,14:56:15.226670
0.278810,+0000005,-0000013,-0000013,+0000037,-0000088,+0004164,-0000838,+0000410,-0002292,14:56:15.226670
0.279143,-0000011,-0000007,+0000012,+0000047,-0000084,+0004168,-0000840,+0000418,-0002304,14:56:15.226670
0.279476,+0000025,-0000039,-0000023,+0000026,-0000101,+0004163,-0000840,+0000418,-0002304,14:56:15.226670
0.279809,+0000021,-0000032,-0000005,+0000044,-0000094,+0004168,-0000840,+0000418,-0002304,14:56:15.226670
0.280142,+0000027,-0000039,-0000005,+0000038,-0000092,+0004164,-0000836,+0000410,-0002309,14:56:15.226670
0.280475,+0000007,-0000013,-0000010,+0000045,-0000094,+0004157,-0000836,+0000410,-0002309,14:56:15.226670
0.280808,-0000012,+0000008,+0000006,+0000023,-0000077,+0004153,-0000836,+0000410,-0002309,14:56:15.226670
0.281141,+0000008,-0000013,-0000010,+0000049,-0000084,+0004164,-0000852,+0000422,-0002288,14:56:15.226670
0.281474,+0000030,-0000035,-0000015,+0000059,-0000109,+0004173,-0000852,+0000422,-0002288,14:56:15.226670
0.281807,+0000021,-0000032,-0000002,+0000068,-0000082,+0004153,-0000852,+0000422,-0002288,14:56:15.226670
0.282140,+0000013,-0000037,-0000007,+0000059,-0000096,+0004148,-0000832,+0000420,-0002330,14:56:15.226670
0.282473,+0000005,-0000005,+0000001,+0000043,-0000103,+0004164,-0000832,+0000420,-0002330,14:56:15.226670
0.282806,+0000008,-0000010,-0000002,+0000053,-0000082,+0004160,-0000832,+0000420,-0002330,14:56:15.226670
0.283139,+0000011,-0000013,-0000010,+0000056,-0000092,+0004156,-0000850,+0000422,-0002313,14:56:15.226670
0.283472,+0000018,-0000024,-0000006,+0000035,-0000099,+0004151,-0000850,+0000422,-0002313,14:56:15.226670
0.283805,+0000024,-0000039,-0000012,+0000023,-0000087,+0004153,-0000850,+0000422,-0002313,14:56:15.226670
0.284138,+0000024,-0000011,-0000008,+0000046,-0000099,+0004159,-0000842,+0000432,-0002300,14:56:15.226670
0.284471,+0000013,-0000010,-0000010,+0000034,-0000104,+0004147,-0000842,+0000432,-0002300,14:56:15.226670
0.284804,+0000010,-0000005,-0000002,+0000014,-0000091,+0004136,-0000842,+0000432,-0002300,14:56:15.226670
0.285192,+0000002,-0000027,-0000015,+0000034,-0000088,+0004159,-0000850,+0000416,-0002286,14:56:15.226670
0.285471,+0000021,-0000026,-0000004,+0000035,-0000088,+0004150,-0000850,+0000416,-0002286,14:56:15.226670
0.285803,-0000006,-0000023,-0000013,+0000027,-0000092,+0004154,-0000850,+0000416,-0002286,14:56:15.226670
0.286136,+0000008,-0000011,+0000009,+0000038,-0000107,+0004142,-0000842,+0000402,-0002298,14:56:15.226670
0.286469,+0000021,-0000016,-0000026,+0000048,-0000096,+0004164,-0000842,+0000402,-0002298,14:56:15.226670
0.286802,+0000000,-0000016,-0000002,+0000047,-0000093,+0004147,-0000842,+0000402,-0002298,14:56:15.226670
0.287135,+0000014,-0000016,+0000000,+0000043,-0000094,+0004140,-0000840,+0000414,-0002311,14:56:15.226670
0.287468,+0000018,-0000034,-0000005,+0000040,-0000090,+0004145,-0000840,+0000414,-0002311,14:56:15.226670
0.287801,+0000029,-0000040,-0000029,+0000057,-0000109,+0004145,-0000840,+0000414,-0002311,14:56:15.226670
0.288134,+0000010,-0000022,+0000001,+0000035,-0000099,+0004144,-0000842,+0000416,-0002292,14:56:15.226670
0.288467,+0000015,-0000024,-0000015,+0000041,-0000100,+0004163,-0000842,+0000416,-0002292,14:56:15.226670
0.288800,+0000002,+0000007,+0000003,+0000038,-0000085,+0004151,-0000842,+0000416,-0002292,14:56:15.226670
0.289133,+0000032,-0000040,-0000005,+0000048,-0000093,+0004139,-0000828,+0000414,-0002328,14:56:15.226670
0.289466,+0000025,-0000047,-0000005,+0000045,-0000099,+0004155,-0000828,+0000414,-0002328,14:56:15.226670
0.289799,+0000010,-0000030,-0000005,+0000031,-0000125,+0004159,-0000828,+0000414,-0002328,14:56:15.226670
0.290132,+0000025,-0000030,-0000016,+0000042,-0000103,+0004149,-0000848,+0000402,-0002280,14:56:15.226670
0.290465,+0000000,-0000013,+0000000,+0000042,-0000096,+0004138,-0000848,+0000402,-0002280,14:56:15.226670
0.290799,+0000007,-0000011,-0000007,+0000032,-0000102,+0004150,-0000848,+0000402,-0002280,14:56:15.292710
0.291133,+0000021,-0000028,-0000004,+0000045,-0000084,+0004141,-0000818,+0000416,-0002300,14:56:15.292710
0.291470,+0000007,-0000016,-0000008,+0000043,-0000078,+0004152,-0000818,+0000416,-0002300,14:56:15.292710
0.291957,+0000016,-0000029,-0000012,+0000041,-0000074,+0004165,-0000818,+0000416,-0002300,14:56:15.292710
0.292157,+0000016,-0000029,-0000012,+0000041,-0000074,+0004138,-0000840,+0000424,-0002299,14:56:15.292710
0.292529,+0000005,-0000004,-0000010,+0000057,-0000085,+0004157,-0000840,+0000424,-0002299,14:56:15.292710
0.292969,+0000012,-0000016,-0000002,+0000057,-0000100,+0004161,-0000840,+0000424,-0002299,14:56:15.292710
0.293129,+0000024,-0000029,-0000005,+0000047,-0000126,+0004161,-0000856,+0000410,-0002292,14:56:15.292710
0.293463,+0000011,-0000036,-0000014,+0000045,-0000113,+0004153,-0000856,+0000410,-0002292,14:56:15.292710
0.293802,+0000016,-0000034,+0000000,+0000040,-0000094,+0004146,-0000856,+0000410,-0002292,14:56:15.292710
0.294128,+0000013,-0000014,-0000013,+0000038,-0000085,+0004154,-0000848,+0000396,-0002302,14:56:15.292710
0.294462,-0000008,-0000004,+0000000,+0000054,-0000100,+0004141,-0000848,+0000396,-0002302,14:56:15.292710
0.294794,+0000025,-0000021,-0000018,+0000061,-0000100,+0004171,-0000848,+0000396,-0002302,14:56:15.292710
0.295127,+0000025,-0000035,-0000005,+0000058,-0000103,+0004166,-0000846,+0000414,-0002294,14:56:15.292710
0.295460,+0000011,-0000040,-0000005,+0000057,-0000096,+0004150,-0000846,+0000414,-0002294,14:56:15.292710
0.295793,+0000028,-0000035,-0000013,+0000053,-0000110,+0004152,-0000846,+0000414,-0002294,14:56:15.292710
0.296126,-0000005,-0000020,-0000002,+0000042,-0000098,+0004138,-0000840,+0000436,-0002280,14:56:15.292710
0.296764,+0000011,-0000021,-0000005,+0000022,-0000081,+0004146,-0000840,+0000436,-0002280,14:56:15.292710
0.296944,+0000008,-0000018,-0000007,+0000030,-0000091,+0004158,-0000840,+0000436,-0002280,14:56:15.292710
0.297135,+0000008,-0000018,-0000007,+0000030,-0000091,+0004158,-0000848,+0000416,-0002323,14:56:15.292710
0.297458,+0000002,-0000018,-0000012,+0000036,-0000116,+0004155,-0000848,+0000416,-0002323,14:56:15.292710
0.297793,+0000014,-0000015,-0000014,+0000040,-0000106,+0004172,-0000848,+0000416,-0002323,14:56:15.292710
0.298125,+0000008,+0000006,+0000001,+0000043,-0000088,+0004154,-0000828,+0000418,-0002307,14:56:15.292710
0.298459,+0000004,-0000026,-0000021,+0000050,-0000108,+0004139,-0000828,+0000418,-0002307,14:56:15.292710
0.298791,+0000007,-0000013,-0000004,+0000065,-0000109,+0004158,-0000828,+0000418,-0002307,14:56:15.292710
0.299125,+0000027,-0000037,-0000010,+0000046,-0000117,+0004141,-0000842,+0000408,-0002295,14:56:15.292710
0.299457,+0000019,-0000034,-0000003,+0000039,-0000089,+0004165,-0000842,+0000408,-0002295,14:56:15.292710
0.299790,+0000016,-0000030,-0000019,+0000053,-0000089,+0004151,-0000842,+0000408,-0002295,14:56:15.294210
0.300122,+0000006,+0000003,-0000005,+0000029,-0000096,+0004172,-0000842,+0000414,-0002292,14:56:15.294210
0.300456,+0000002,-0000016,+0000000,+0000045,-0000083,+0004166,-0000842,+0000414,-0002292,14:56:15.294210
0.300790,+0000016,-0000021,-0000021,+0000032,-0000082,+0004166,-0000842,+0000414,-0002292,14:56:15.294210
0.301122,+0000022,-0000035,+0000001,+0000054,-0000085,+0004151,-0000824,+0000410,-0002334,14:56:15.294210
0.301454,+0000016,-0000031,-0000016,+0000037,-0000117,+0004147,-0000824,+0000410,-0002334,14:56:15.294210
0.301787,+0000007,-0000015,-0000010,+0000057,-0000114,+0004140,-0000824,+0000410,-0002334,14:56:15.294210
0.302120,+0000021,-0000024,-0000011,+0000037,-0000100,+0004143,-0000842,+0000420,-0002301,14:56:15.294210
0.302453,+0000008,-0000004,-0000010,+0000055,-0000096,+0004137,-0000842,+0000420,-0002301,14:56:15.294210
0.302786,+0000007,-0000026,-0000004,+0000038,-0000091,+0004152,-0000842,+0000420,-0002301,14:56:15.294210
0.303119,+0000033,-0000048,-0000013,+0000032,-0000102,+0004153,-0000828,+0000430,-0002296,14:56:15.294210
0.303452,+0000016,-0000031,-0000014,+0000042,-0000096,+0004157,-0000828,+0000430,-0002296,14:56:15.294210
0.303785,+0000003,-0000021,-0000008,+0000056,-0000098,+0004142,-0000828,+0000430,-0002296,14:56:15.294210
0.304118,+0000014,-0000023,-0000007,+0000048,-0000116,+0004153,-0000822,+0000418,-0002310,14:56:15.294210
0.304451,+0000019,-0000005,-0000013,+0000037,-0000100,+0004156,-0000822,+0000418,-0002310,14:56:15.294210
0.304784,+0000023,-0000021,-0000012,+0000033,-0000092,+0004157,-0000822,+0000418,-0002310,14:56:15.294210
0.305117,+0000011,-0000026,-0000007,+0000023,-0000096,+0004160,-0000842,+0000424,-0002290,14:56:15.294210
0.305450,+0000023,-0000031,-0000008,+0000033,-0000083,+0004157,-0000842,+0000424,-0002290,14:56:15.294210
0.305783,+0000022,-0000029,-0000014,+0000025,-0000079,+0004162,-0000842,+0000424,-0002290,14:56:15.294210
0.306116,+0000006,+0000003,-0000008,+0000031,-0000095,+0004147,-0000824,+0000428,-0002308,14:56:15.294210
0.306449,+0000018,-0000008,-0000002,+0000029,-0000097,+0004145,-0000824,+0000428,-0002308,14:56:15.294210
0.306782,+0000008,-0000024,-0000007,+0000040,-0000096,+0004141,-0000824,+0000428,-0002308,14:56:15.294210
0.307115,+0000021,-0000028,-0000003,+0000045,-0000123,+0004148,-0000820,+0000420,-0002293,14:56:15.294210
0.307448,+0000014,-0000023,-0000011,+0000040,-0000111,+0004163,-0000820,+0000420,-0002293,14:56:15.294210
0.307781,+0000006,-0000020,-0000018,+0000030,-0000108,+0004163,-0000820,+0000420,-0002293,14:56:15.294210
0.308114,-0000003,+0000000,+0000000,+0000048,-0000106,+0004167,-0000836,+0000394,-0002323,14:56:15.294210
0.308447,+0000013,-0000016,+0000003,+0000047,-0000095,+0004152,-0000836,+0000394,-0002323,14:56:15.294210
0.308780,+0000011,-0000021,-0000005,+0000048,-0000088,+0004144,-0000836,+0000394,-0002323,14:56:15.294210
0.309113,+0000025,-0000021,-0000013,+0000042,-0000112,+0004132,-0000836,+0000414,-0002296,14:56:15.294210
0.309446,+0000013,-0000040,-0000016,+0000058,-0000107,+0004168,-0000836,+0000414,-0002296,14:56:15.294210
0.309779,-0000001,-0000010,-0000011,+0000031,-0000095,+0004169,-0000836,+0000414,-0002296,14:56:15.294210
0.310112,+0000022,-0000031,-0000002,+0000045,-0000084,+0004137,-0000844,+0000412,-0002313,14:56:15.294210
0.310445,+0000010,-0000014,-0000016,+0000039,-0000093,+0004145,-0000844,+0000412,-0002313,14:56:15.294210
0.310779,+0000015,-0000030,+0000004,+0000028,-0000078,+0004143,-0000844,+0000412,-0002313,14:56:15.294210
0.311156,+0000021,-0000038,-0000013,+0000032,-0000110,+0004158,-0000840,+0000406,-0002326,14:56:15.294210
0.311444,+0000018,-0000012,-0000008,+0000060,-0000094,+0004144,-0000840,+0000406,-0002326,14:56:15.294210
0.311779,+0000000,-0000001,+0000004,+0000032,-0000107,+0004155,-0000840,+0000406,-0002326,14:56:15.294210
0.312110,+0000013,-0000026,-0000016,+0000045,-0000096,+0004148,-0000826,+0000422,-0002299,14:56:15.294210
0.312443,+0000010,-0000016,+0000001,+0000042,-0000104,+0004152,-0000826,+0000422,-0002299,14:56:15.294210
0.312776,+0000025,-0000031,-0000015,+0000022,-0000083,+0004164,-0000826,+0000422,-0002299,14:56:15.294210
0.313109,+0000013,-0000013,-0000008,+0000043,-0000096,+0004145,-0000842,+0000428,-0002319,14:56:15.294210
0.313442,-0000008,-0000015,-0000008,+0000040,-0000090,+0004158,-0000842,+0000428,-0002319,14:56:15.294210
0.313776,+0000014,-0000016,-0000013,+0000035,-0000100,+0004148,-0000842,+0000428,-0002319,14:56:15.294210
0.314108,+0000007,-0000010,-0000011,+0000040,-0000082,+0004170,-0000834,+0000394,-0002308,14:56:15.294210
0.314441,-0000001,-0000029,-0000004,+0000052,-0000104,+0004158,-0000834,+0000394,-0002308,14:56:15.294210
0.314776,+0000014,-0000035,-0000007,+0000053,-0000092,+0004143,-0000834,+0000394,-0002308,14:56:15.294210
0.315107,+0000011,-0000034,-0000005,+0000053,-0000102,+0004166,-0000820,+0000422,-0002285,14:56:15.294210
0.315440,+0000021,-0000019,-0000011,+0000044,-0000099,+0004139,-0000820,+0000422,-0002285,14:56:15.294210
0.315776,+0000000,-0000006,-0000006,+0000053,-0000085,+0004152,-0000820,+0000422,-0002285,14:56:15.294210
0.316106,+0000018,-0000021,-0000005,+0000052,-0000101,+0004159,-0000838,+0000418,-0002295,14:56:15.294210
0.316439,+0000013,-0000026,-0000005,+0000057,-0000100,+0004154,-0000838,+0000418,-0002295,14:56:15.294210
0.316772,+0000022,-0000043,-0000007,+0000049,-0000096,+0004149,-0000838,+0000418,-0002295,14:56:15.294210
0.317105,+0000018,-0000026,-0000013,+0000045,-0000088,+0004146,-0000844,+0000406,-0002281,14:56:15.294210
0.317438,+0000014,-0000021,+0000001,+0000028,-0000096,+0004117,-0000844,+0000406,-0002281,14:56:15.294210
0.317772,+0000011,-0000016,-0000019,+0000049,-0000103,+0004131,-0000844,+0000406,-0002281,14:56:15.294210
0.318104,+0000013,-0000018,-0000002,+0000031,-0000118,+0004155,-0000840,+0000424,-0002298,14:56:15.294210
0.318437,-0000003,-0000017,+0000020,+0000034,-0000095,+0004161,-0000840,+0000424,-0002298,14:56:15.294210
0.318772,+0000034,-0000037,-0000019,+0000036,-0000080,+0004160,-0000840,+0000424,-0002298,14:56:15.294210
0.319103,+0000011,-0000042,-0000005,+0000022,-0000087,+0004152,-0000832,+0000414,-0002319,14:56:15.294210
0.319436,+0000030,-0000027,-0000018,+0000067,-0000093,+0004148,-0000832,+0000414,-0002319,14:56:15.294210
0.319772,+0000013,-0000016,-0000011,+0000028,-0000100,+0004142,-0000832,+0000414,-0002319,14:56:15.294210
0.320102,+0000018,-0000018,-0000010,+0000045,-0000100,+0004162,-0000842,+0000400,-0002308,14:56:15.294210
0.320435,+0000018,-0000031,-0000005,+0000053,-0000087,+0004146,-0000842,+0000400,-0002308,14:56:15.294210
0.320772,+0000008,-0000029,-0000011,+0000031,-0000083,+0004149,-0000842,+0000400,-0002308,14:56:15.294210
0.321101,+0000027,-0000037,-0000008,+0000034,-0000103,+0004178,-0000810,+0000392,-0002304,14:56:15.294210
0.321434,+0000008,-0000020,-0000018,+0000026,-0000090,+0004138,-0000810,+0000392,-0002304,14:56:15.294210
0.321772,+0000004,-0000003,+0000009,+0000046,-0000104,+0004138,-0000810,+0000392,-0002304,14:56:15.294210
0.322100,-0000001,-0000023,-0000003,+0000037,-0000088,+0004123,-0000826,+0000412,-0002067,14:56:15.294210
0.322433,+0000025,-0000039,-0000016,+0000044,-0000092,+0004153,-0000826,+0000412,-0002067,14:56:15.294210
0.322771,+0000018,-0000028,+0000000,+0000054,-0000099,+0004154,-0000826,+0000412,-0002067,14:56:15.294210
0.323099,+0000019,-0000040,-0000012,+0000043,-0000091,+0004134,-0000846,+0000424,-0002320,14:56:15.294210
0.323432,+0000011,-0000027,-0000014,+0000059,-0000107,+0004174,-0000846,+0000424,-0002320,14:56:15.294210
0.323770,+0000013,-0000008,+0000001,+0000067,-0000102,+0004170,-0000846,+0000424,-0002320,14:56:15.294210
0.324098,+0000007,-0000021,-0000019,+0000046,-0000110,+0004140,-0000834,+0000424,-0002301,14:56:15.294210
0.324431,+0000020,-0000034,-0000007,+0000036,-0000100,+0004148,-0000834,+0000424,-0002301,14:56:15.294210
0.324770,+0000030,-0000047,-0000015,+0000051,-0000099,+0004159,-0000834,+0000424,-0002301,14:56:15.294210
0.325097,+0000013,-0000016,+0000002,+0000026,-0000116,+0004149,-0000826,+0000422,-0002315,14:56:15.294210
0.325430,+0000000,-0000015,-0000015,+0000042,-0000093,+0004152,-0000826,+0000422,-0002315,14:56:15.294210
0.325769,+0000014,-0000018,-0000003,+0000024,-0000105,+0004155,-0000826,+0000422,-0002315,14:56:15.294210
0.326096,+0000013,-0000024,-0000013,+0000027,-0000096,+0004146,-0000826,+0000406,-0002287,14:56:15.294210
0.326429,+0000020,-0000023,-0000004,+0000044,-0000111,+0004158,-0000826,+0000406,-0002287,14:56:15.294210
0.326768,+0000024,-0000022,-0000002,+0000033,-0000091,+0004139,-0000826,+0000406,-0002287,14:56:15.294210
0.327095,+0000016,-0000015,-0000007,+0000035,-0000083,+0004133,-0000836,+0000424,-0002313,14:56:15.294210
0.327428,+0000002,-0000002,+0000000,+0000051,-0000083,+0004129,-0000836,+0000424,-0002313,14:56:15.294210
0.327767,-0000003,-0000016,-0000006,+0000051,-0000094,+0004160,-0000836,+0000424,-0002313,14:56:15.294210
0.328094,+0000017,-0000021,-0000014,+0000052,-0000101,+0004136,-0000832,+0000408,-0002304,14:56:15.294210
0.328427,+0000021,-0000037,-0000010,+0000046,-0000096,+0004147,-0000832,+0000408,-0002304,14:56:15.294210
0.328766,+0000016,-0000037,-0000010,+0000059,-0000098,+0004134,-0000832,+0000408,-0002304,14:56:15.294210
0.329093,+0000018,-0000023,-0000013,+0000039,-0000115,+0004150,-0000822,+0000416,-0002293,14:56:15.294210
0.329426,+0000000,-0000008,+0000004,+0000030,-0000100,+0004140,-0000822,+0000416,-0002293,14:56:15.294210
0.329765,+0000013,-0000007,-0000019,+0000061,-0000098,+0004164,-0000822,+0000416,-0002293,14:56:15.294210
0.330092,+0000018,-0000021,-0000013,+0000044,-0000096,+0004162,-0000828,+0000400,-0002302,14:56:15.294210
0.330425,+0000019,-0000034,-0000006,+0000044,-0000096,+0004157,-0000828,+0000400,-0002302,14:56:15.294210
0.330764,+0000017,-0000042,-0000005,+0000026,-0000077,+0004155,-0000828,+0000400,-0002302,14:56:15.294210
0.331091,+0000008,-0000020,-0000019,+0000031,-0000077,+0004137,-0000838,+0000424,-0002295,14:56:15.294210
0.331424,+0000002,-0000015,+0000001,+0000027,-0000096,+0004156,-0000838,+0000424,-0002295,14:56:15.294210
0.331763,+0000011,-0000011,-0000013,+0000039,-0000075,+0004141,-0000838,+0000424,-0002295,14:56:15.294210
0.332090,+0000008,-0000021,+0000002,+0000054,-0000090,+0004138,-0000838,+0000424,-0002304,14:56:15.294210
0.332423,+0000038,-0000047,-0000013,+0000033,-0000092,+0004147,-0000838,+0000424,-0002304,14:56:15.295217
0.332756,+0000013,-0000028,-0000012,+0000050,-0000103,+0004145,-0000838,+0000424,-0002304,14:56:15.295217
0.333089,+0000017,-0000024,+0000003,+0000041,-0000101,+0004158,-0000840,+0000418,-0002285,14:56:15.295217
0.333422,+0000003,-0000022,-0000018,+0000059,-0000088,+0004148,-0000840,+0000418,-0002285,14:56:15.295217
0.333755,-0000009,-0000005,+0000001,+0000061,-0000095,+0004161,-0000840,+0000418,-0002285,14:56:15.295217
0.334088,+0000016,-0000021,-0000010,+0000043,-0000092,+0004136,-0000838,+0000420,-0002306,14:56:15.295217
0.334421,+0000016,-0000034,+0000002,+0000054,-0000099,+0004164,-0000838,+0000420,-0002306,14:56:15.295217
0.334754,+0000024,-0000042,-0000008,+0000048,-0000075,+0004160,-0000838,+0000420,-0002306,14:56:15.295217
0.335087,+0000010,-0000024,-0000016,+0000039,-0000077,+0004157,-0000836,+0000404,-0002305,14:56:15.295217
0.335420,+0000000,-0000002,-0000011,+0000032,-0000088,+0004154,-0000836,+0000404,-0002305,14:56:15.295217
0.335753,+0000010,-0000013,-0000010,+0000033,-0000096,+0004159,-0000836,+0000404,-0002305,14:56:15.295217
0.336086,+0000021,-0000021,-0000004,+0000034,-0000100,+0004144,-0000852,+0000420,-0002300,14:56:15.295217
0.336419,+0000018,-0000038,+0000000,+0000035,-0000100,+0004146,-0000852,+0000420,-0002300,14:56:15.295217
0.336752,+0000019,-0000029,-0000016,+0000042,-0000084,+0004150,-0000852,+0000420,-0002300,14:56:15.295217
0.337085,+0000011,-0000027,-0000018,+0000039,-0000108,+0004143,-0000830,+0000408,-0002308,14:56:15.295217
0.337418,+0000006,-0000013,+0000004,+0000049,-0000110,+0004140,-0000830,+0000408,-0002308,14:56:15.295217
0.337751,+0000016,-0000016,-0000013,+0000039,-0000108,+0004143,-0000830,+0000408,-0002308,14:56:15.295217
0.338084,+0000014,-0000024,-0000008,+0000021,-0000096,+0004146,-0000836,+0000418,-0002305,14:56:15.295217
0.338417,+0000019,-0000024,-0000014,+0000044,-0000080,+0004143,-0000836,+0000418,-0002305,14:56:15.295217
0.338750,+0000027,-0000021,-0000010,+0000028,-0000090,+0004131,-0000836,+0000418,-0002305,14:56:15.295217
0.339083,+0000011,-0000015,-0000002,+0000036,-0000103,+0004163,-0000836,+0000420,-0002297,14:56:15.295217
0.339416,+0000003,-0000007,-0000003,+0000049,-0000087,+0004165,-0000836,+0000420,-0002297,14:56:15.295217
0.339749,+0000026,-0000031,-0000003,+0000036,-0000111,+0004146,-0000836,+0000420,-0002297,14:56:15.295217
0.340082,+0000021,-0000026,-0000013,+0000045,-0000105,+0004155,-0000844,+0000410,-0002301,14:56:15.295217
0.340415,+0000022,-0000020,+0000000,+0000034,-0000084,+0004158,-0000844,+0000410,-0002301,14:56:15.295217
0.340750,+0000013,-0000019,-0000018,+0000054,-0000108,+0004138,-0000844,+0000410,-0002301,14:56:15.327859
0.341082,+0000011,-0000020,-0000002,+0000054,-0000099,+0004153,-0000846,+0000416,-0002304,14:56:15.327859
0.341420,+0000008,-0000009,-0000008,+0000025,-0000103,+0004165,-0000846,+0000416,-0002304,14:56:15.327859
0.341966,+0000030,-0000050,-0000013,+0000045,-0000095,+0004151,-0000846,+0000416,-0002304,14:56:15.327859
0.342178,+0000005,-0000015,+0000006,+0000030,-0000077,+0004165,-0000858,+0000400,-0002294,14:56:15.327859
0.342631,+0000011,-0000034,-0000012,+0000037,-0000087,+0004150,-0000858,+0000400,-0002294,14:56:15.327859
0.342790,+0000016,-0000034,-0000012,+0000037,-0000087,+0004150,-0000858,+0000400,-0002294,14:56:15.327859
0.343094,+0000003,-0000006,-0000008,+0000054,-0000071,+0004157,-0000850,+0000418,-0002301,14:56:15.327859
0.343447,+0000016,-0000023,-0000018,+0000046,-0000097,+0004166,-0000850,+0000418,-0002301,14:56:15.327859
0.343746,+0000024,-0000018,+0000004,+0000044,-0000083,+0004154,-0000850,+0000418,-0002301,14:56:15.327859
0.344078,+0000024,-0000035,-0000013,+0000043,-0000092,+0004143,-0000848,+0000426,-0002300,14:56:15.327859
0.344412,+0000019,-0000031,-0000008,+0000056,-0000099,+0004157,-0000848,+0000426,-0002300,14:56:15.327859
0.344744,+0000022,-0000027,-0000013,+0000038,-0000090,+0004153,-0000848,+0000426,-0002300,14:56:15.327859
0.345077,-0000003,-0000016,-0000012,+0000031,-0000092,+0004162,-0000858,+0000414,-0002303,14:56:15.327859
0.345410,+0000011,-0000002,-0000008,+0000045,-0000093,+0004161,-0000858,+0000414,-0002303,14:56:15.327859
0.345743,+0000006,-0000026,-0000010,+0000046,-0000082,+0004165,-0000858,+0000414,-0002303,14:56:15.327859
0.346076,+0000022,-0000029,-0000006,+0000039,-0000102,+0004152,-0000836,+0000424,-0002266,14:56:15.327859
0.346409,+0000024,-0000039,-0000019,+0000031,-0000106,+0004156,-0000836,+0000424,-0002266,14:56:15.327859
0.346742,+0000013,-0000029,-0000007,+0000027,-0000104,+0004144,-0000836,+0000424,-0002266,14:56:15.327859
0.347075,+0000014,-0000015,-0000002,+0000053,-0000087,+0004162,-0000846,+0000420,-0002296,14:56:15.327859
0.347408,+0000011,-0000013,+0000001,+0000059,-0000104,+0004146,-0000846,+0000420,-0002296,14:56:15.327859
0.347743,+0000021,-0000024,-0000003,+0000032,-0000091,+0004134,-0000846,+0000420,-0002296,14:56:15.327859
0.348074,+0000016,-0000036,+0000004,+0000034,-0000097,+0004161,-0000856,+0000414,-0002296,14:56:15.327859
0.348407,+0000007,-0000027,-0000016,+0000046,-0000099,+0004170,-0000856,+0000414,-0002296,14:56:15.327859
0.348740,+0000029,-0000016,-0000015,+0000065,-0000104,+0004145,-0000856,+0000414,-0002296,14:56:15.327859
0.349073,+0000000,+0000004,+0000000,+0000041,-0000084,+0004166,-0000856,+0000418,-0002304,14:56:15.327859
0.349406,+0000016,-0000022,-0000008,+0000034,-0000095,+0004172,-0000856,+0000418,-0002304,14:56:15.327859
0.349739,+0000016,-0000032,-0000006,+0000046,-0000088,+0004143,-0000856,+0000418,-0002304,14:56:15.327859
0.350072,+0000018,-0000042,-0000019,+0000030,-0000076,+0004154,-0000854,+0000422,-0002301,14:56:15.328849
0.350405,+0000021,-0000026,+0000001,+0000042,-0000072,+0004157,-0000854,+0000422,-0002301,14:56:15.328849
0.350738,+0000000,-0000011,-0000005,+0000051,-0000093,+0004159,-0000854,+0000422,-0002301,14:56:15.328849
0.351071,+0000013,-0000011,-0000002,+0000044,-0000077,+0004158,-0000844,+0000410,-0002325,14:56:15.328849
0.351404,+0000013,-0000034,-0000008,+0000050,-0000091,+0004155,-0000844,+0000410,-0002325,14:56:15.328849
0.351737,+0000019,-0000026,+0000001,+0000023,-0000099,+0004155,-0000844,+0000410,-0002325,14:56:15.328849
0.352070,+0000020,-0000030,-0000007,+0000036,-0000103,+0004140,-0000842,+0000420,-0002311,14:56:15.328849
0.352403,+0000025,-0000007,+0000001,+0000046,-0000104,+0004148,-0000842,+0000420,-0002311,14:56:15.328849
0.352736,+0000000,-0000016,-0000010,+0000057,-0000089,+0004153,-0000842,+0000420,-0002311,14:56:15.328849
0.353069,+0000017,-0000018,-0000013,+0000054,-0000082,+0004156,-0000854,+0000404,-0002300,14:56:15.328849
0.353402,-0000009,-0000016,+0000000,+0000033,-0000107,+0004152,-0000854,+0000404,-0002300,14:56:15.329849
0.353735,+0000022,-0000029,-0000002,+0000051,-0000101,+0004168,-0000854,+0000404,-0002300,14:56:15.329849
0.354068,+0000023,-0000023,-0000013,+0000033,-0000105,+0004162,-0000840,+0000394,-0002326,14:56:15.329849
0.354401,+0000005,-0000011,-0000003,+0000044,-0000085,+0004151,-0000840,+0000394,-0002326,14:56:15.329849
0.354734,+0000006,-0000028,-0000016,+0000042,-0000072,+0004150,-0000840,+0000394,-0002326,14:56:15.329849
0.355067,+0000008,-0000012,-0000004,+0000047,-0000090,+0004149,-0000840,+0000414,-0002287,14:56:15.329849
0.355400,+0000013,-0000026,-0000010,+0000049,-0000073,+0004146,-0000840,+0000414,-0002287,14:56:15.330849
0.355733,+0000017,-0000015,-0000019,+0000054,-0000082,+0004160,-0000840,+0000414,-0002287,14:56:15.330849
0.356066,+0000011,-0000019,-0000008,+0000058,-0000098,+0004151,-0000850,+0000404,-0002282,14:56:15.332854
0.356399,+0000021,-0000024,-0000018,+0000065,-0000087,+0004146,-0000850,+0000404,-0002282,14:56:15.332854
0.356732,-0000006,-0000011,-0000011,+0000049,-0000094,+0004143,-0000850,+0000404,-0002282,14:56:15.332854
0.357065,+0000013,-0000016,-0000008,+0000036,-0000095,+0004160,-0000848,+0000418,-0002322,14:56:15.332854
0.357398,+0000010,-0000016,-0000010,+0000033,-0000111,+0004150,-0000848,+0000418,-0002322,14:56:15.332854
0.357731,+0000019,-0000036,-0000001,+0000040,-0000091,+0004150,-0000848,+0000418,-0002322,14:56:15.332854
0.358064,+0000021,-0000034,-0000016,+0000031,-0000111,+0004133,-0000856,+0000426,-0002263,14:56:15.332854
0.358397,+0000009,-0000031,-0000003,+0000035,-0000079,+0004133,-0000856,+0000426,-0002263,14:56:15.332854
0.358730,+0000019,-0000016,-0000019,+0000054,-0000092,+0004156,-0000856,+0000426,-0002263,14:56:15.332854
0.359063,-0000003,-0000026,-0000002,+0000042,-0000094,+0004160,-0000842,+0000424,-0002324,14:56:15.332854
0.359396,+0000007,-0000013,+0000006,+0000029,-0000096,+0004145,-0000842,+0000424,-0002324,14:56:15.332854
0.359729,+0000019,-0000044,-0000020,+0000043,-0000088,+0004162,-0000842,+0000424,-0002324,14:56:15.332854
0.360062,+0000008,-0000028,-0000001,+0000053,-0000088,+0004138,-0000838,+0000408,-0002295,14:56:15.332854
0.360395,+0000019,-0000026,-0000016,+0000037,-0000089,+0004149,-0000838,+0000408,-0002295,14:56:15.332854
0.360728,+0000010,-0000016,-0000013,+0000053,-0000093,+0004135,-0000838,+0000408,-0002295,14:56:15.332854
0.361061,+0000005,-0000011,-0000010,+0000036,-0000085,+0004149,-0000858,+0000412,-0002296,14:56:15.332854
0.361394,+0000019,-0000034,+0000001,+0000044,-0000086,+0004137,-0000858,+0000412,-0002296,14:56:15.332854
0.361728,+0000036,-0000031,-0000011,+0000032,-0000096,+0004146,-0000858,+0000412,-0002296,14:56:15.332854
0.362060,+0000005,-0000035,-0000007,+0000044,-0000101,+0004153,-0000858,+0000402,-0002285,14:56:15.332854
0.362534,+0000000,-0000011,-0000013,+0000033,-0000081,+0004150,-0000858,+0000402,-0002285,14:56:15.332854
0.362730,+0000003,-0000011,-0000002,+0000029,-0000084,+0004128,-0000858,+0000402,-0002285,14:56:15.332854
0.363063,+0000029,-0000043,-0000021,+0000047,-0000100,+0004144,-0000832,+0000410,-0002281,14:56:15.332854
0.363392,+0000008,-0000024,-0000005,+0000044,-0000082,+0004166,-0000832,+0000410,-0002281,14:56:15.332854
0.363727,+0000024,-0000024,-0000013,+0000038,-0000086,+0004145,-0000832,+0000410,-0002281,14:56:15.332854
0.364058,+0000025,-0000043,-0000016,+0000052,-0000094,+0004156,-0000838,+0000402,-0002298,14:56:15.332854
0.364392,+0000002,-0000010,-0000016,+0000058,-0000104,+0004139,-0000838,+0000402,-0002298,14:56:15.332854
0.364724,+0000018,-0000019,-0000016,+0000031,-0000086,+0004132,-0000838,+0000402,-0002298,14:56:15.332854
0.365057,-0000006,-0000005,+0000003,+0000037,-0000090,+0004145,-0000840,+0000418,-0002288,14:56:15.332854
0.365392,+0000025,-0000027,-0000006,+0000050,-0000099,+0004161,-0000840,+0000418,-0002288,14:56:15.332854
0.365724,+0000011,-0000046,-0000013,+0000045,-0000101,+0004147,-0000840,+0000418,-0002288,14:56:15.332854
0.366057,+0000027,-0000021,+0000004,+0000042,-0000081,+0004150,-0000844,+0000408,-0002288,14:56:15.332854
0.366389,+0000010,-0000013,-0000014,+0000035,-0000098,+0004157,-0000844,+0000408,-0002288,14:56:15.332854
0.366723,-0000001,-0000010,-0000007,+0000048,-0000091,+0004147,-0000844,+0000408,-0002288,14:56:15.332854
0.367055,+0000019,-0000030,-0000018,+0000041,-0000097,+0004160,-0000850,+0000400,-0002295,14:56:15.332854
0.367388,+0000025,-0000029,-0000007,+0000038,-0000087,+0004131,-0000850,+0000400,-0002295,14:56:15.332854
0.367721,+0000017,-0000026,-0000024,+0000054,-0000107,+0004150,-0000850,+0000400,-0002295,14:56:15.332854
0.368054,+0000003,-0000013,+0000000,+0000024,-0000098,+0004135,-0000832,+0000404,-0002310,14:56:15.332854
0.368387,+0000018,-0000018,-0000011,+0000046,-0000083,+0004143,-0000832,+0000404,-0002310,14:56:15.332854
0.368720,+0000006,-0000016,-0000002,+0000048,-0000090,+0004150,-0000832,+0000404,-0002310,14:56:15.332854
0.369053,+0000005,-0000012,-0000008,+0000051,-0000093,+0004123,-0000840,+0000398,-0002316,14:56:15.332854
0.369386,+0000024,-0000037,-0000011,+0000049,-0000098,+0004170,-0000840,+0000398,-0002316,14:56:15.332854
0.369719,+0000013,-0000021,-0000008,+0000035,-0000093,+0004129,-0000840,+0000398,-0002316,14:56:15.332854
0.370052,+0000027,-0000026,-0000013,+0000054,-0000105,+0004142,-0000858,+0000428,-0002302,14:56:15.332854
0.370385,+0000013,-0000013,-0000004,+0000038,-0000099,+0004151,-0000858,+0000428,-0002302,14:56:15.332854
0.370718,+0000000,-0000004,-0000004,+0000044,-0000101,+0004150,-0000858,+0000428,-0002302,14:56:15.332854
0.371051,+0000016,-0000026,+0000001,+0000053,-0000088,+0004153,-0000844,+0000416,-0002298,14:56:15.332854
0.371384,+0000024,-0000039,-0000019,+0000031,-0000098,+0004161,-0000844,+0000416,-0002298,14:56:15.332854
0.371717,+0000019,-0000023,-0000007,+0000025,-0000095,+0004152,-0000844,+0000416,-0002298,14:56:15.332854
0.372050,+0000020,-0000034,-0000005,+0000042,-0000096,+0004138,-0000832,+0000400,-0002311,14:56:15.332854
0.372383,+0000003,-0000013,-0000012,+0000037,-0000107,+0004160,-0000832,+0000400,-0002311,14:56:15.332854
0.372716,+0000013,-0000008,-0000004,+0000046,-0000109,+0004120,-0000832,+0000400,-0002311,14:56:15.332854
0.373049,+0000011,-0000030,-0000014,+0000047,-0000093,+0004156,-0000862,+0000418,-0002306,14:56:15.332854
0.373382,+0000024,-0000039,-0000014,+0000037,-0000089,+0004150,-0000862,+0000418,-0002306,14:56:15.332854
0.373715,+0000019,-0000024,-0000005,+0000036,-0000091,+0004128,-0000862,+0000418,-0002306,14:56:15.332854
0.374048,+0000005,-0000032,-0000008,+0000022,-0000091,+0004136,-0000844,+0000422,-0002291,14:56:15.332854
0.374381,+0000024,-0000013,-0000013,+0000059,-0000083,+0004160,-0000844,+0000422,-0002291,14:56:15.332854
0.374714,+0000002,-0000002,-0000002,+0000047,-0000087,+0004166,-0000844,+0000422,-0002291,14:56:15.332854
0.375047,+0000016,-0000031,-0000008,+0000043,-0000082,+0004157,-0000840,+0000398,-0002293,14:56:15.332854
0.375380,+0000011,-0000024,-0000006,+0000045,-0000082,+0004141,-0000840,+0000398,-0002293,14:56:15.332854
0.375713,+0000022,-0000043,-0000007,+0000060,-0000088,+0004138,-0000840,+0000398,-0002293,14:56:15.332854
0.376046,+0000011,-0000030,-0000011,+0000036,-0000099,+0004144,-0000848,+0000412,-0002292,14:56:15.332854
0.376379,-0000003,-0000016,-0000010,+0000050,-0000083,+0004144,-0000848,+0000412,-0002292,14:56:15.332854
