===BEGIN_METADATA===
"This CSV contains gyroscope, accelerometer, and magnetometer data synced with the test named below."
Test Name: 2026-07-07_150452_01,yyyy-mm-dd_hhmmss_{probe#/nano_id}
Calibrations: (not implemented yet)
===END_METADATA===
===BEGIN_DATA===
Time (sec),Gyro X,Gyro Y,Gyro Z,Accel X,Accel Y,Accel Z,Mag X,Mag Y,Mag Z,Processed_Time
0.000043,+0000010,+0000000,-0000006,+0000055,-0000090,+0004147,-0000802,+0000526,-0002353,15:04:53.989380
0.000374,+0000011,-0000014,+0000001,+0000077,-0000090,+0004138,-0000802,+0000526,-0002353,15:04:53.989380
0.000707,+0000012,-0000019,-0000016,+0000067,-0000111,+0004153,-0000802,+0000526,-0002353,15:04:53.989380
0.001040,+0000022,-0000016,-0000007,+0000051,-0000097,+0004163,-0000792,+0000510,-0002341,15:04:53.989380
0.001373,+0000002,-0000008,-0000005,+0000064,-0000095,+0004161,-0000792,+0000510,-0002341,15:04:53.989380
0.001706,+0000010,-0000019,-0000007,+0000073,-0000094,+0004156,-0000792,+0000510,-0002341,15:04:53.989380
0.002039,+0000022,-0000016,-0000008,+0000047,-0000099,+0004146,-0000812,+0000512,-0002353,15:04:53.989380
0.002372,+0000008,-0000026,-0000008,+0000056,-0000090,+0004162,-0000812,+0000512,-0002353,15:04:53.989380
0.002705,+0000022,-0000032,-0000021,+0000054,-0000080,+0004140,-0000812,+0000512,-0002353,15:04:53.989380
0.003038,+0000008,-0000018,-0000005,+0000069,-0000118,+0004157,-0000798,+0000514,-0002318,15:04:53.989380
0.003371,-0000003,-0000018,-0000005,+0000070,-0000090,+0004159,-0000798,+0000514,-0002318,15:04:53.989380
0.003704,+0000000,-0000016,+0000000,+0000057,-0000093,+0004161,-0000798,+0000514,-0002318,15:04:53.989380
0.004037,+0000008,-0000019,-0000011,+0000059,-0000106,+0004160,-0000812,+0000526,-0002342,15:04:53.989380
0.004370,+0000014,-0000035,-0000026,+0000064,-0000097,+0004165,-0000812,+0000526,-0002342,15:04:53.989380
0.004703,+0000009,-0000026,+0000004,+0000060,-0000085,+0004136,-0000812,+0000526,-0002342,15:04:53.989380
0.005036,+0000017,-0000023,-0000010,+0000070,-0000098,+0004141,-0000810,+0000510,-0002346,15:04:53.989380
0.005369,+0000019,-0000019,-0000018,+0000051,-0000068,+0004156,-0000810,+0000510,-0002346,15:04:53.989380
0.005702,-0000006,-0000005,+0000005,+0000050,-0000102,+0004154,-0000810,+0000510,-0002346,15:04:53.989380
0.006035,+0000011,-0000018,-0000002,+0000069,-0000087,+0004144,-0000796,+0000522,-0002369,15:04:53.989380
0.006368,+0000013,-0000028,-0000010,+0000061,-0000084,+0004156,-0000796,+0000522,-0002369,15:04:53.989380
0.006701,+0000030,-0000021,-0000016,+0000060,-0000071,+0004132,-0000796,+0000522,-0002369,15:04:53.989380
0.007034,+0000008,-0000031,-0000008,+0000066,-0000077,+0004131,-0000806,+0000508,-0002351,15:04:53.989380
0.007367,+0000011,-0000012,+0000000,+0000053,-0000091,+0004161,-0000806,+0000508,-0002351,15:04:53.989380
0.007700,+0000006,-0000012,-0000016,+0000056,-0000098,+0004148,-0000806,+0000508,-0002351,15:04:53.989380
0.008033,+0000014,-0000022,-0000010,+0000062,-0000085,+0004169,-0000812,+0000532,-0002330,15:04:53.989380
0.008366,+0000025,-0000034,+0000002,+0000057,-0000084,+0004168,-0000812,+0000532,-0002330,15:04:53.989380
0.008699,+0000019,-0000034,-0000018,+0000082,-0000088,+0004161,-0000812,+0000532,-0002330,15:04:53.989380
0.009032,+0000005,-0000016,-0000008,+0000075,-0000077,+0004152,-0000820,+0000498,-0002329,15:04:53.989380
0.009365,+0000019,-0000029,-0000003,+0000046,-0000073,+0004149,-0000820,+0000498,-0002329,15:04:53.989380
0.009698,-0000003,-0000013,+0000001,+0000052,-0000095,+0004150,-0000820,+0000498,-0002329,15:04:54.045350
0.010034,+0000019,-0000016,-0000007,+0000068,-0000103,+0004152,-0000786,+0000520,-0002339,15:04:54.045350
0.010368,+0000016,-0000047,-0000007,+0000057,-0000106,+0004172,-0000786,+0000520,-0002339,15:04:54.045350
0.010994,+0000013,+0000001,-0000008,+0000075,-0000075,+0004154,-0000786,+0000520,-0002339,15:04:54.045350
0.011208,+0000014,-0000021,-0000007,+0000075,-0000075,+0004154,-0000794,+0000518,-0002309,15:04:54.045350
0.011419,+0000006,-0000011,-0000005,+0000076,-0000092,+0004135,-0000794,+0000518,-0002309,15:04:54.045350
0.011698,+0000019,-0000015,-0000010,+0000068,-0000067,+0004146,-0000794,+0000518,-0002309,15:04:54.045350
0.012029,+0000010,-0000042,-0000003,+0000053,-0000085,+0004175,-0000788,+0000516,-0002326,15:04:54.045350
0.012362,+0000030,-0000032,-0000014,+0000069,-0000097,+0004150,-0000788,+0000516,-0002326,15:04:54.045350
0.012695,+0000012,-0000034,-0000005,+0000044,-0000066,+0004144,-0000788,+0000516,-0002326,15:04:54.045350
0.013028,+0000011,-0000013,-0000013,+0000061,-0000069,+0004144,-0000792,+0000524,-0002330,15:04:54.045350
0.013361,+0000019,-0000018,-0000005,+0000049,-0000083,+0004171,-0000792,+0000524,-0002330,15:04:54.045350
0.013695,+0000008,-0000005,-0000006,+0000058,-0000081,+0004151,-0000792,+0000524,-0002330,15:04:54.045350
0.014027,+0000030,-0000027,-0000007,+0000074,-0000080,+0004142,-0000796,+0000524,-0002332,15:04:54.045350
0.014361,+0000017,-0000040,-0000013,+0000051,-0000090,+0004162,-0000796,+0000524,-0002332,15:04:54.045350
0.014694,+0000021,-0000016,-0000011,+0000070,-0000097,+0004144,-0000796,+0000524,-0002332,15:04:54.045350
0.015026,-0000006,-0000007,+0000001,+0000058,-0000106,+0004140,-0000802,+0000520,-0002351,15:04:54.045350
0.015360,+0000006,-0000029,-0000026,+0000069,-0000091,+0004154,-0000802,+0000520,-0002351,15:04:54.045350
0.015692,+0000010,-0000001,-0000007,+0000045,-0000095,+0004148,-0000802,+0000520,-0002351,15:04:54.045350
0.016025,+0000025,-0000039,-0000002,+0000054,-0000095,+0004157,-0000822,+0000522,-0002359,15:04:54.045350
0.016358,+0000008,-0000016,-0000011,+0000067,-0000106,+0004161,-0000822,+0000522,-0002359,15:04:54.045350
0.016691,-0000001,-0000018,-0000014,+0000066,-0000085,+0004171,-0000822,+0000522,-0002359,15:04:54.045350
0.017024,+0000011,-0000013,-0000006,+0000059,-0000099,+0004171,-0000792,+0000528,-0002327,15:04:54.045350
0.017357,+0000000,-0000007,-0000008,+0000066,-0000095,+0004155,-0000792,+0000528,-0002327,15:04:54.045350
0.017690,+0000020,-0000023,-0000008,+0000050,-0000103,+0004172,-0000792,+0000528,-0002327,15:04:54.045350
0.018023,+0000009,-0000032,-0000008,+0000037,-0000086,+0004154,-0000792,+0000518,-0002331,15:04:54.045350
0.018356,+0000017,-0000026,-0000015,+0000052,-0000077,+0004149,-0000792,+0000518,-0002331,15:04:54.045350
0.018689,+0000014,-0000032,-0000005,+0000061,-0000096,+0004144,-0000792,+0000518,-0002331,15:04:54.045350
0.019022,+0000016,-0000019,-0000011,+0000056,-0000087,+0004160,-0000804,+0000518,-0002333,15:04:54.045350
0.019355,+0000011,-0000008,-0000010,+0000068,-0000089,+0004153,-0000804,+0000518,-0002333,15:04:54.045350
0.019688,+0000009,-0000021,-0000011,+0000059,-0000073,+0004140,-0000804,+0000518,-0002333,15:04:54.045350
0.020021,+0000030,-0000034,-0000018,+0000060,-0000065,+0004155,-0000808,+0000520,-0002333,15:04:54.045350
0.020354,+0000018,-0000030,-0000008,+0000071,-0000081,+0004152,-0000808,+0000520,-0002333,15:04:54.045350
0.020687,+0000025,-0000030,-0000020,+0000067,-0000089,+0004156,-0000808,+0000520,-0002333,15:04:54.045350
0.021020,+0000003,-0000007,-0000016,+0000042,-0000096,+0004159,-0000804,+0000502,-0002333,15:04:54.045350
0.021353,+0000021,-0000015,-0000003,+0000084,-0000091,+0004139,-0000804,+0000502,-0002333,15:04:54.045350
0.021688,+0000008,-0000015,+0000006,+0000050,-0000086,+0004171,-0000804,+0000502,-0002333,15:04:54.045350
0.022019,+0000033,-0000024,-0000024,+0000068,-0000079,+0004142,-0000802,+0000512,-0002319,15:04:54.045350
0.022352,+0000024,-0000038,-0000007,+0000073,-0000086,+0004155,-0000802,+0000512,-0002319,15:04:54.045350
0.022685,+0000012,-0000031,-0000010,+0000060,-0000091,+0004145,-0000802,+0000512,-0002319,15:04:54.045350
0.023018,+0000018,-0000008,-0000011,+0000087,-0000084,+0004157,-0000816,+0000528,-0002351,15:04:54.045350
0.023351,+0000005,+0000000,-0000010,+0000073,-0000083,+0004150,-0000816,+0000528,-0002351,15:04:54.045350
0.023684,+0000011,-0000031,-0000005,+0000064,-0000091,+0004148,-0000816,+0000528,-0002351,15:04:54.045350
0.024017,+0000025,-0000037,-0000008,+0000066,-0000068,+0004159,-0000802,+0000510,-0002376,15:04:54.045350
0.024350,+0000035,-0000034,-0000019,+0000058,-0000077,+0004158,-0000802,+0000510,-0002376,15:04:54.045350
0.024683,+0000012,-0000021,+0000006,+0000064,-0000082,+0004161,-0000802,+0000510,-0002376,15:04:54.045350
0.025016,+0000000,-0000002,+0000001,+0000050,-0000088,+0004136,-0000784,+0000520,-0002362,15:04:54.045350
0.025349,+0000011,-0000010,-0000016,+0000078,-0000081,+0004133,-0000784,+0000520,-0002362,15:04:54.045350
0.025682,+0000006,-0000032,+0000006,+0000057,-0000107,+0004130,-0000784,+0000520,-0002362,15:04:54.045350
0.026015,+0000022,-0000040,-0000018,+0000053,-0000096,+0004154,-0000802,+0000514,-0002342,15:04:54.045350
0.026348,+0000017,-0000027,-0000006,+0000055,-0000079,+0004156,-0000802,+0000514,-0002342,15:04:54.045350
0.026681,+0000013,-0000011,-0000020,+0000052,-0000084,+0004158,-0000802,+0000514,-0002342,15:04:54.045350
0.027014,+0000013,-0000019,-0000002,+0000068,-0000082,+0004158,-0000790,+0000514,-0002334,15:04:54.045350
0.027347,+0000011,-0000019,+0000001,+0000050,-0000093,+0004149,-0000790,+0000514,-0002334,15:04:54.045350
0.027680,+0000030,-0000034,-0000015,+0000081,-0000068,+0004156,-0000790,+0000514,-0002334,15:04:54.045350
0.028013,+0000019,-0000034,-0000002,+0000060,-0000107,+0004155,-0000808,+0000500,-0002350,15:04:54.049357
0.028346,+0000007,-0000013,-0000011,+0000053,-0000097,+0004159,-0000808,+0000500,-0002350,15:04:54.049357
0.028679,+0000014,-0000012,+0000000,+0000054,-0000097,+0004157,-0000808,+0000500,-0002350,15:04:54.049357
0.029012,-0000016,+0000000,-0000011,+0000056,-0000099,+0004147,-0000794,+0000522,-0002340,15:04:54.049357
0.029345,+0000006,-0000026,+0000000,+0000062,-0000107,+0004162,-0000794,+0000522,-0002340,15:04:54.049357
0.029678,+0000024,-0000031,-0000011,+0000060,-0000095,+0004158,-0000794,+0000522,-0002340,15:04:54.049357
0.030011,+0000016,-0000015,-0000002,+0000054,-0000087,+0004168,-0000800,+0000510,-0002366,15:04:54.049357
0.030344,+0000024,-0000021,-0000016,+0000060,-0000081,+0004144,-0000800,+0000510,-0002366,15:04:54.049357
0.030677,+0000012,-0000030,-0000010,+0000062,-0000102,+0004172,-0000800,+0000510,-0002366,15:04:54.049357
0.031010,-0000009,+0000000,-0000002,+0000059,-0000097,+0004164,-0000790,+0000516,-0002340,15:04:54.049357
0.031343,+0000005,-0000027,-0000002,+0000046,-0000123,+0004152,-0000790,+0000516,-0002340,15:04:54.049357
0.031676,+0000013,-0000027,-0000011,+0000051,-0000085,+0004142,-0000790,+0000516,-0002340,15:04:54.049357
0.032009,+0000013,-0000024,-0000011,+0000045,-0000103,+0004168,-0000818,+0000518,-0002343,15:04:54.049357
0.032342,+0000015,-0000026,-0000016,+0000041,-0000090,+0004133,-0000818,+0000518,-0002343,15:04:54.049357
0.032675,+0000003,-0000018,-0000004,+0000049,-0000079,+0004142,-0000818,+0000518,-0002343,15:04:54.049357
0.033008,+0000006,-0000005,+0000001,+0000076,-0000081,+0004161,-0000802,+0000514,-0002316,15:04:54.049357
0.033341,+0000021,-0000022,-0000005,+0000063,-0000091,+0004152,-0000802,+0000514,-0002316,15:04:54.049357
0.033674,+0000011,-0000034,-0000011,+0000071,-0000072,+0004160,-0000802,+0000514,-0002316,15:04:54.049357
0.034007,+0000017,-0000027,-0000010,+0000064,-0000077,+0004163,-0000796,+0000524,-0002344,15:04:54.049357
0.034340,+0000020,-0000034,-0000008,+0000057,-0000074,+0004158,-0000796,+0000524,-0002344,15:04:54.049357
0.034673,+0000011,-0000003,-0000003,+0000056,-0000078,+0004150,-0000796,+0000524,-0002344,15:04:54.049357
0.035006,+0000002,-0000011,-0000008,+0000065,-0000088,+0004155,-0000806,+0000524,-0002336,15:04:54.049357
0.035339,+0000010,-0000012,+0000006,+0000081,-0000091,+0004163,-0000806,+0000524,-0002336,15:04:54.049357
0.035672,+0000020,-0000034,-0000007,+0000037,-0000087,+0004161,-0000806,+0000524,-0002336,15:04:54.049357
0.036005,+0000013,-0000034,-0000018,+0000057,-0000097,+0004144,-0000800,+0000520,-0002359,15:04:54.049357
0.036338,+0000013,-0000031,-0000003,+0000067,-0000079,+0004135,-0000800,+0000520,-0002359,15:04:54.049357
0.036671,+0000007,-0000013,-0000005,+0000049,-0000079,+0004160,-0000800,+0000520,-0002359,15:04:54.049357
0.037004,+0000005,-0000015,-0000005,+0000088,-0000094,+0004155,-0000800,+0000514,-0002337,15:04:54.049357
0.037337,+0000013,-0000013,-0000006,+0000067,-0000108,+0004150,-0000800,+0000514,-0002337,15:04:54.049357
0.037670,+0000016,-0000040,-0000010,+0000054,-0000088,+0004146,-0000800,+0000514,-0002337,15:04:54.049357
0.038003,+0000022,-0000037,-0000012,+0000069,-0000085,+0004137,-0000814,+0000516,-0002335,15:04:54.049357
0.038336,+0000005,-0000007,-0000014,+0000055,-0000080,+0004153,-0000814,+0000516,-0002335,15:04:54.065351
0.038671,+0000000,-0000005,-0000004,+0000063,-0000073,+0004154,-0000814,+0000516,-0002335,15:04:54.065351
0.039006,+0000011,-0000023,-0000007,+0000064,-0000083,+0004161,-0000804,+0000514,-0002363,15:04:54.065351
0.039340,+0000005,-0000015,-0000007,+0000043,-0000095,+0004175,-0000804,+0000514,-0002363,15:04:54.065351
0.039771,+0000002,-0000011,-0000014,+0000062,-0000099,+0004141,-0000804,+0000514,-0002363,15:04:54.065351
0.040294,+0000021,-0000007,-0000002,+0000063,-0000106,+0004143,-0000802,+0000514,-0002349,15:04:54.065351
0.040550,-0000005,-0000007,-0000002,+0000063,-0000106,+0004162,-0000802,+0000514,-0002349,15:04:54.065351
0.040680,+0000018,-0000023,-0000008,+0000062,-0000086,+0004162,-0000802,+0000514,-0002349,15:04:54.065351
0.041090,+0000005,-0000013,-0000003,+0000048,-0000094,+0004143,-0000794,+0000532,-0002357,15:04:54.065351
0.041326,+0000027,-0000020,-0000010,+0000056,-0000094,+0004143,-0000794,+0000532,-0002357,15:04:54.065351
0.041712,+0000014,-0000016,+0000005,+0000055,-0000098,+0004150,-0000794,+0000532,-0002357,15:04:54.065351
0.041999,+0000012,+0000003,-0000018,+0000061,-0000084,+0004147,-0000796,+0000516,-0002333,15:04:54.065351
0.042332,-0000003,-0000013,-0000004,+0000079,-0000096,+0004168,-0000796,+0000516,-0002333,15:04:54.065351
0.042665,+0000013,-0000017,-0000003,+0000067,-0000111,+0004169,-0000796,+0000516,-0002333,15:04:54.065351
0.042998,+0000010,-0000018,-0000007,+0000068,-0000109,+0004141,-0000784,+0000532,-0002314,15:04:54.065351
0.043331,+0000013,-0000027,-0000007,+0000068,-0000078,+0004140,-0000784,+0000532,-0002314,15:04:54.065351
0.043664,+0000040,-0000015,-0000015,+0000064,-0000108,+0004146,-0000784,+0000532,-0002314,15:04:54.065351
0.043997,+0000008,-0000028,-0000003,+0000054,-0000101,+0004159,-0000780,+0000526,-0002335,15:04:54.065351
0.044330,+0000008,-0000010,-0000002,+0000047,-0000074,+0004146,-0000780,+0000526,-0002335,15:04:54.065351
0.044663,+0000011,-0000019,-0000012,+0000057,-0000084,+0004172,-0000780,+0000526,-0002335,15:04:54.065351
0.044996,+0000010,-0000021,-0000008,+0000064,-0000087,+0004139,-0000796,+0000526,-0002330,15:04:54.065351
0.045329,+0000019,-0000031,-0000005,+0000060,-0000080,+0004151,-0000796,+0000526,-0002330,15:04:54.065351
0.045662,+0000016,-0000042,-0000013,+0000075,-0000104,+0004158,-0000796,+0000526,-0002330,15:04:54.066348
0.045995,+0000011,-0000021,-0000021,+0000051,-0000097,+0004165,-0000796,+0000502,-0002336,15:04:54.066348
0.046328,+0000005,-0000021,+0000008,+0000052,-0000083,+0004155,-0000796,+0000502,-0002336,15:04:54.066348
0.046661,+0000000,-0000008,-0000010,+0000066,-0000092,+0004147,-0000796,+0000502,-0002336,15:04:54.066348
0.046994,+0000003,-0000013,-0000002,+0000080,-0000070,+0004152,-0000798,+0000520,-0002349,15:04:54.066348
0.047327,+0000017,-0000035,-0000011,+0000050,-0000079,+0004135,-0000798,+0000520,-0002349,15:04:54.066348
0.047660,+0000013,-0000029,-0000010,+0000063,-0000075,+0004154,-0000798,+0000520,-0002349,15:04:54.066348
0.047993,+0000020,-0000026,-0000013,+0000057,-0000104,+0004150,-0000812,+0000524,-0002370,15:04:54.066348
0.048326,+0000003,-0000020,+0000001,+0000055,-0000098,+0004138,-0000812,+0000524,-0002370,15:04:54.066348
0.048659,+0000008,-0000019,-0000018,+0000052,-0000108,+0004162,-0000812,+0000524,-0002370,15:04:54.068350
0.048992,+0000018,-0000020,-0000015,+0000063,-0000088,+0004151,-0000782,+0000510,-0002347,15:04:54.068350
0.049342,+0000016,-0000030,-0000002,+0000072,-0000105,+0004155,-0000782,+0000510,-0002347,15:04:54.068350
0.049658,+0000012,-0000035,+0000000,+0000063,-0000076,+0004150,-0000782,+0000510,-0002347,15:04:54.068350
0.049991,+0000018,-0000021,-0000008,+0000049,-0000075,+0004161,-0000798,+0000508,-0002323,15:04:54.068350
0.050324,+0000003,-0000008,-0000007,+0000076,-0000097,+0004147,-0000798,+0000508,-0002323,15:04:54.068350
0.050657,+0000003,-0000024,-0000011,+0000073,-0000080,+0004154,-0000798,+0000508,-0002323,15:04:54.068350
0.050990,+0000016,-0000016,-0000002,+0000068,-0000104,+0004159,-0000806,+0000504,-0002328,15:04:54.068350
0.051358,+0000028,-0000039,-0000013,+0000073,-0000102,+0004161,-0000806,+0000504,-0002328,15:04:54.068350
0.051656,+0000009,-0000032,-0000007,+0000056,-0000097,+0004141,-0000806,+0000504,-0002328,15:04:54.068350
0.051989,+0000030,-0000051,-0000014,+0000084,-0000093,+0004148,-0000822,+0000528,-0002347,15:04:54.068350
0.052322,+0000003,-0000008,-0000002,+0000072,-0000117,+0004156,-0000822,+0000528,-0002347,15:04:54.068350
0.052655,+0000006,-0000016,-0000008,+0000063,-0000097,+0004148,-0000822,+0000528,-0002347,15:04:54.068350
0.052988,+0000024,-0000021,-0000013,+0000054,-0000093,+0004151,-0000802,+0000518,-0002338,15:04:54.068350
0.053321,+0000021,-0000044,-0000007,+0000076,-0000076,+0004151,-0000802,+0000518,-0002338,15:04:54.068350
0.053654,+0000024,-0000032,-0000010,+0000054,-0000091,+0004149,-0000802,+0000518,-0002338,15:04:54.068350
0.053987,+0000003,-0000010,-0000005,+0000053,-0000101,+0004148,-0000812,+0000516,-0002331,15:04:54.068350
0.054320,+0000013,-0000024,-0000007,+0000061,-0000091,+0004149,-0000812,+0000516,-0002331,15:04:54.068350
0.054653,+0000011,-0000017,-0000011,+0000048,-0000098,+0004143,-0000812,+0000516,-0002331,15:04:54.068350
0.054986,+0000023,-0000031,+0000007,+0000071,-0000092,+0004149,-0000810,+0000506,-0002351,15:04:54.068350
0.055319,+0000010,-0000037,-0000010,+0000050,-0000082,+0004155,-0000810,+0000506,-0002351,15:04:54.068350
0.055679,+0000010,-0000006,+0000000,+0000075,-0000094,+0004160,-0000810,+0000506,-0002351,15:04:54.068350
0.055985,+0000013,-0000037,-0000015,+0000055,-0000070,+0004147,-0000814,+0000508,-0002360,15:04:54.068350
0.056318,+0000029,-0000030,-0000005,+0000051,-0000072,+0004148,-0000814,+0000508,-0002360,15:04:54.068350
0.056651,+0000019,-0000027,-0000014,+0000052,-0000084,+0004144,-0000814,+0000508,-0002360,15:04:54.068350
0.056984,+0000011,-0000015,-0000005,+0000062,-0000076,+0004144,-0000816,+0000522,-0002365,15:04:54.068350
0.057317,+0000019,-0000016,-0000004,+0000068,-0000090,+0004152,-0000816,+0000522,-0002365,15:04:54.068350
0.057650,+0000006,-0000029,-0000015,+0000062,-0000085,+0004151,-0000816,+0000522,-0002365,15:04:54.068350
0.057983,-0000006,-0000005,+0000005,+0000057,-0000081,+0004165,-0000812,+0000498,-0002338,15:04:54.068350
0.058316,+0000011,-0000021,-0000022,+0000048,-0000075,+0004171,-0000812,+0000498,-0002338,15:04:54.068350
0.058649,+0000014,-0000011,-0000007,+0000047,-0000080,+0004155,-0000812,+0000498,-0002338,15:04:54.068350
0.058982,+0000006,-0000024,-0000024,+0000046,-0000088,+0004161,-0000810,+0000510,-0002326,15:04:54.068350
0.059315,+0000011,-0000029,-0000013,+0000037,-0000091,+0004145,-0000810,+0000510,-0002326,15:04:54.068350
0.059648,+0000016,-0000016,-0000003,+0000064,-0000091,+0004151,-0000810,+0000510,-0002326,15:04:54.068350
0.059981,-0000001,-0000024,-0000010,+0000051,-0000094,+0004136,-0000808,+0000484,-0002351,15:04:54.068350
0.060314,+0000008,-0000010,-0000013,+0000053,-0000110,+0004147,-0000808,+0000484,-0002351,15:04:54.068350
0.060647,+0000019,-0000026,-0000005,+0000069,-0000081,+0004152,-0000808,+0000484,-0002351,15:04:54.068350
0.060980,+0000035,-0000051,-0000027,+0000066,-0000080,+0004162,-0000820,+0000514,-0002362,15:04:54.068350
0.061313,+0000014,-0000032,-0000003,+0000068,-0000095,+0004153,-0000820,+0000514,-0002362,15:04:54.068350
0.061646,+0000021,-0000024,-0000018,+0000049,-0000074,+0004154,-0000820,+0000514,-0002362,15:04:54.068350
0.061979,+0000011,-0000023,-0000007,+0000056,-0000090,+0004153,-0000810,+0000512,-0002334,15:04:54.068350
0.062312,-0000006,-0000013,-0000008,+0000028,-0000094,+0004152,-0000810,+0000512,-0002334,15:04:54.068350
0.062645,+0000006,-0000018,+0000001,+0000060,-0000075,+0004135,-0000810,+0000512,-0002334,15:04:54.068350
0.062978,+0000025,-0000027,-0000011,+0000067,-0000083,+0004146,-0000802,+0000514,-0002385,15:04:54.068350
0.063311,+0000002,-0000034,-0000010,+0000078,-0000063,+0004143,-0000802,+0000514,-0002385,15:04:54.068350
0.063644,+0000011,-0000037,-0000018,+0000068,-0000106,+0004150,-0000802,+0000514,-0002385,15:04:54.068350
0.063977,+0000011,-0000010,-0000011,+0000064,-0000097,+0004146,-0000818,+0000500,-0002344,15:04:54.069352
0.064310,+0000009,-0000009,+0000006,+0000055,-0000087,+0004142,-0000818,+0000500,-0002344,15:04:54.069352
0.064643,+0000012,-0000031,-0000001,+0000060,-0000075,+0004157,-0000818,+0000500,-0002344,15:04:54.069352
0.064976,+0000020,-0000029,-0000019,+0000059,-0000105,+0004138,-0000804,+0000496,-0002344,15:04:54.069352
0.065309,+0000013,-0000027,-0000012,+0000086,-0000073,+0004139,-0000804,+0000496,-0002344,15:04:54.069352
0.065642,+0000022,-0000032,-0000018,+0000052,-0000076,+0004148,-0000804,+0000496,-0002344,15:04:54.070817
0.065975,-0000001,-0000011,-0000007,+0000056,-0000101,+0004162,-0000818,+0000492,-0002358,15:04:54.070817
0.066308,+0000003,-0000018,-0000006,+0000048,-0000084,+0004161,-0000818,+0000492,-0002358,15:04:54.070817
0.066641,+0000017,-0000027,+0000001,+0000053,-0000075,+0004149,-0000818,+0000492,-0002358,15:04:54.070817
0.066974,+0000025,-0000035,-0000008,+0000051,-0000089,+0004148,-0000820,+0000514,-0002350,15:04:54.071823
0.067308,+0000019,-0000043,-0000013,+0000053,-0000083,+0004154,-0000820,+0000514,-0002350,15:04:54.071823
0.067640,+0000003,+0000001,+0000001,+0000059,-0000085,+0004143,-0000820,+0000514,-0002350,15:04:54.071823
0.067981,+0000010,-0000026,-0000005,+0000053,-0000100,+0004138,-0000816,+0000512,-0002321,15:04:54.071823
0.068306,+0000001,-0000024,-0000010,+0000040,-0000104,+0004164,-0000816,+0000512,-0002321,15:04:54.071823
0.068741,+0000028,-0000030,+0000000,+0000050,-0000097,+0004138,-0000816,+0000512,-0002321,15:04:54.071823
0.068977,+0000022,-0000030,-0000013,+0000063,-0000087,+0004144,-0000810,+0000526,-0002320,15:04:54.071823
0.069308,+0000005,-0000018,-0000007,+0000063,-0000088,+0004155,-0000810,+0000526,-0002320,15:04:54.071823
0.069640,+0000003,-0000029,-0000011,+0000044,-0000076,+0004159,-0000810,+0000526,-0002320,15:04:54.071823
0.069973,+0000021,-0000015,-0000007,+0000062,-0000087,+0004171,-0000804,+0000526,-0002347,15:04:54.071823
0.070306,+0000006,-0000037,-0000008,+0000043,-0000115,+0004171,-0000804,+0000526,-0002347,15:04:54.071823
0.070831,+0000017,-0000032,-0000018,+0000057,-0000078,+0004149,-0000804,+0000526,-0002347,15:04:54.071823
0.070982,+0000017,-0000010,-0000011,+0000055,-0000092,+0004149,-0000812,+0000512,-0002354,15:04:54.072823
0.071303,-0000009,+0000005,+0000005,+0000042,-0000093,+0004140,-0000812,+0000512,-0002354,15:04:54.072823
0.071636,+0000020,-0000021,-0000014,+0000039,-0000115,+0004148,-0000812,+0000512,-0002354,15:04:54.072823
0.071969,+0000016,+0000001,-0000002,+0000049,-0000106,+0004145,-0000802,+0000516,-0002327,15:04:54.072823
0.072302,+0000014,-0000021,-0000018,+0000050,-0000084,+0004159,-0000802,+0000516,-0002327,15:04:54.072823
0.072635,+0000016,-0000018,-0000035,+0000078,-0000084,+0004164,-0000802,+0000516,-0002327,15:04:54.072823
0.072968,+0000014,-0000019,-0000002,+0000064,-0000105,+0004155,-0000786,+0000512,-0002348,15:04:54.072823
0.073306,+0000014,-0000037,-0000011,+0000086,-0000086,+0004144,-0000786,+0000512,-0002348,15:04:54.072823
0.073638,+0000022,-0000023,-0000008,+0000059,-0000077,+0004142,-0000786,+0000512,-0002348,15:04:54.072823
0.073967,+0000030,-0000035,-0000015,+0000058,-0000094,+0004141,-0000790,+0000510,-0002347,15:04:54.072823
0.074300,+0000019,-0000014,-0000004,+0000062,-0000083,+0004162,-0000790,+0000510,-0002347,15:04:54.073823
0.074633,+0000022,-0000026,-0000010,+0000052,-0000087,+0004152,-0000790,+0000510,-0002347,15:04:54.073823
0.074966,+0000008,-0000029,-0000007,+0000073,-0000101,+0004130,-0000798,+0000530,-0002340,15:04:54.074822
0.075299,+0000027,-0000032,-0000020,+0000067,-0000103,+0004146,-0000798,+0000530,-0002340,15:04:54.074822
0.075633,-0000005,-0000003,-0000005,+0000071,-0000104,+0004143,-0000798,+0000530,-0002340,15:04:54.074822
0.075965,+0000010,-0000015,-0000011,+0000074,-0000075,+0004152,-0000796,+0000520,-0002356,15:04:54.074822
0.076298,+0000016,-0000015,+0000001,+0000074,-0000068,+0004159,-0000796,+0000520,-0002356,15:04:54.074822
0.076633,+0000028,-0000046,-0000013,+0000064,-0000085,+0004155,-0000796,+0000520,-0002356,15:04:54.074822
0.076964,+0000005,-0000024,-0000003,+0000067,-0000107,+0004172,-0000802,+0000532,-0002355,15:04:54.074822
0.077297,+0000027,-0000031,-0000013,+0000071,-0000087,+0004142,-0000802,+0000532,-0002355,15:04:54.074822
0.077633,+0000006,-0000020,-0000019,+0000055,-0000101,+0004164,-0000802,+0000532,-0002355,15:04:54.074822
0.077963,+0000021,-0000018,-0000005,+0000047,-0000083,+0004163,-0000812,+0000526,-0002326,15:04:54.074822
0.078296,+0000016,-0000032,-0000011,+0000060,-0000093,+0004162,-0000812,+0000526,-0002326,15:04:54.074822
0.078629,+0000017,-0000032,-0000007,+0000056,-0000076,+0004157,-0000812,+0000526,-0002326,15:04:54.074822
0.078962,+0000025,-0000032,-0000013,+0000056,-0000086,+0004124,-0000808,+0000516,-0002338,15:04:54.074822
0.079295,+0000019,-0000039,-0000007,+0000065,-0000077,+0004154,-0000808,+0000516,-0002338,15:04:54.074822
0.079629,+0000005,-0000019,-0000006,+0000067,-0000075,+0004133,-0000808,+0000516,-0002338,15:04:54.074822
0.079961,+0000014,-0000013,-0000005,+0000061,-0000086,+0004131,-0000802,+0000520,-0002375,15:04:54.074822
0.080294,+0000014,-0000024,+0000000,+0000057,-0000110,+0004143,-0000802,+0000520,-0002375,15:04:54.074822
0.080629,+0000018,-0000037,-0000011,+0000077,-0000113,+0004153,-0000802,+0000520,-0002375,15:04:54.074822
0.080960,+0000038,-0000047,-0000022,+0000055,-0000099,+0004152,-0000790,+0000516,-0002359,15:04:54.074822
0.081293,+0000022,-0000007,-0000018,+0000056,-0000105,+0004141,-0000790,+0000516,-0002359,15:04:54.074822
0.081629,+0000011,-0000021,-0000010,+0000065,-0000084,+0004156,-0000790,+0000516,-0002359,15:04:54.075822
0.081959,+0000011,-0000021,-0000005,+0000060,-0000073,+0004155,-0000814,+0000514,-0002352,15:04:54.075822
0.082292,+0000009,-0000032,-0000003,+0000059,-0000066,+0004141,-0000814,+0000514,-0002352,15:04:54.075822
0.082629,+0000021,-0000031,-0000008,+0000036,-0000094,+0004152,-0000814,+0000514,-0002352,15:04:54.075822
0.082958,+0000023,-0000018,-0000011,+0000065,-0000081,+0004149,-0000790,+0000508,-0002344,15:04:54.075822
0.083291,-0000005,-0000011,-0000007,+0000068,-0000089,+0004150,-0000790,+0000508,-0002344,15:04:54.075822
0.083629,+0000019,-0000012,-0000018,+0000064,-0000112,+0004162,-0000790,+0000508,-0002344,15:04:54.075822
0.083957,+0000014,-0000026,+0000003,+0000052,-0000096,+0004156,-0000810,+0000508,-0002345,15:04:54.075822
0.084290,+0000010,-0000032,-0000023,+0000071,-0000097,+0004148,-0000810,+0000508,-0002345,15:04:54.075822
0.084628,+0000032,-0000037,-0000025,+0000066,-0000107,+0004151,-0000810,+0000508,-0002345,15:04:54.075822
0.084956,-0000012,-0000001,+0000008,+0000063,-0000090,+0004154,-0000806,+0000516,-0002349,15:04:54.076821
0.085289,+0000007,-0000020,-0000021,+0000046,-0000091,+0004144,-0000806,+0000516,-0002349,15:04:54.076821
0.085627,+0000008,-0000007,-0000016,+0000064,-0000092,+0004140,-0000806,+0000516,-0002349,15:04:54.076821
0.085955,+0000014,-0000029,-0000010,+0000051,-0000092,+0004166,-0000802,+0000516,-0002330,15:04:54.076821
0.086288,+0000021,-0000035,-0000024,+0000068,-0000096,+0004156,-0000802,+0000516,-0002330,15:04:54.077822
0.086627,+0000003,-0000021,+0000001,+0000076,-0000083,+0004145,-0000802,+0000516,-0002330,15:04:54.077822
0.086954,+0000027,-0000028,-0000013,+0000060,-0000094,+0004132,-0000806,+0000526,-0002335,15:04:54.077822
0.087287,-0000008,+0000006,+0000002,+0000053,-0000081,+0004178,-0000806,+0000526,-0002335,15:04:54.077822
0.087626,+0000021,-0000024,-0000021,+0000047,-0000082,+0004163,-0000806,+0000526,-0002335,15:04:54.077822
0.087953,-0000007,-0000007,-0000019,+0000064,-0000082,+0004149,-0000812,+0000510,-0002355,15:04:54.077822
0.088286,+0000022,-0000043,-0000002,+0000059,-0000077,+0004168,-0000812,+0000510,-0002355,15:04:54.077822
0.088626,+0000024,-0000034,-0000021,+0000066,-0000091,+0004140,-0000812,+0000510,-0002355,15:04:54.145934
0.088953,+0000006,-0000023,-0000002,+0000051,-0000108,+0004165,-0000798,+0000500,-0002320,15:04:54.145934
0.089290,+0000014,-0000026,-0000013,+0000054,-0000088,+0004147,-0000798,+0000500,-0002320,15:04:54.146918
0.089862,+0000025,-0000015,-0000012,+0000060,-0000086,+0004141,-0000798,+0000500,-0002320,15:04:54.146918
0.090091,+0000006,-0000015,-0000012,+0000060,-0000086,+0004141,-0000808,+0000518,-0002340,15:04:54.146918
0.090465,-0000002,-0000004,-0000010,+0000057,-0000068,+0004151,-0000808,+0000518,-0002340,15:04:54.146918
0.090664,-0000002,-0000004,-0000010,+0000057,-0000068,+0004151,-0000808,+0000518,-0002340,15:04:54.146918
0.090953,+0000016,-0000037,-0000019,+0000061,-0000108,+0004159,-0000802,+0000506,-0002335,15:04:54.146918
0.091285,+0000022,-0000011,+0000009,+0000070,-0000072,+0004146,-0000802,+0000506,-0002335,15:04:54.146918
0.091705,+0000016,-0000034,+0000006,+0000072,-0000083,+0004147,-0000802,+0000506,-0002335,15:04:54.146918
0.091949,+0000016,-0000024,-0000002,+0000062,-0000093,+0004164,-0000806,+0000520,-0002342,15:04:54.146918
0.092282,+0000017,-0000046,-0000021,+0000062,-0000084,+0004155,-0000806,+0000520,-0002342,15:04:54.146918
0.092621,+0000022,-0000037,+0000005,+0000064,-0000081,+0004159,-0000806,+0000520,-0002342,15:04:54.146918
0.092948,+0000016,-0000031,-0000025,+0000057,-0000086,+0004164,-0000810,+0000510,-0002336,15:04:54.146918
0.093281,+0000006,-0000015,-0000004,+0000061,-0000098,+0004162,-0000810,+0000510,-0002336,15:04:54.146918
0.093622,+0000013,-0000019,-0000016,+0000043,-0000072,+0004151,-0000810,+0000510,-0002336,15:04:54.146918
0.093947,+0000011,-0000026,-0000002,+0000051,-0000084,+0004156,-0000812,+0000512,-0002349,15:04:54.146918
0.094280,+0000030,-0000021,-0000021,+0000081,-0000097,+0004139,-0000812,+0000512,-0002349,15:04:54.146918
0.094613,+0000021,-0000037,-0000016,+0000064,-0000080,+0004165,-0000812,+0000512,-0002349,15:04:54.146918
0.094946,+0000003,-0000019,-0000011,+0000057,-0000081,+0004160,-0000818,+0000530,-0002305,15:04:54.146918
0.095279,+0000017,-0000015,-0000011,+0000053,-0000107,+0004138,-0000818,+0000530,-0002305,15:04:54.146918
0.095612,+0000002,-0000021,+0000000,+0000052,-0000096,+0004140,-0000818,+0000530,-0002305,15:04:54.146918
0.095945,+0000030,-0000026,-0000018,+0000064,-0000095,+0004151,-0000796,+0000526,-0002327,15:04:54.146918
0.096278,+0000020,-0000040,+0000003,+0000068,-0000077,+0004155,-0000796,+0000526,-0002327,15:04:54.146918
0.096611,+0000017,-0000016,-0000011,+0000064,-0000090,+0004164,-0000796,+0000526,-0002327,15:04:54.146918
0.096944,+0000009,-0000024,-0000005,+0000043,-0000092,+0004144,-0000804,+0000516,-0002319,15:04:54.146918
0.097277,+0000013,-0000018,-0000013,+0000067,-0000083,+0004148,-0000804,+0000516,-0002319,15:04:54.146918
0.097610,+0000011,-0000028,-0000008,+0000075,-0000094,+0004141,-0000804,+0000516,-0002319,15:04:54.146918
0.097943,+0000027,-0000017,-0000003,+0000051,-0000101,+0004148,-0000804,+0000524,-0002318,15:04:54.146918
0.098277,+0000016,-0000004,-0000004,+0000070,-0000095,+0004162,-0000804,+0000524,-0002318,15:04:54.146918
0.098609,+0000013,-0000028,-0000004,+0000085,-0000072,+0004176,-0000804,+0000524,-0002318,15:04:54.146918
0.098942,+0000010,-0000018,-0000013,+0000084,-0000076,+0004145,-0000798,+0000512,-0002307,15:04:54.146918
0.099275,+0000011,-0000015,-0000013,+0000052,-0000078,+0004152,-0000798,+0000512,-0002307,15:04:54.146918
0.099742,+0000005,-0000037,-0000011,+0000061,-0000100,+0004168,-0000798,+0000512,-0002307,15:04:54.146918
0.099942,+0000005,-0000011,-0000015,+0000058,-0000070,+0004160,-0000790,+0000516,-0002358,15:04:54.146918
0.100279,-0000005,-0000010,+0000003,+0000063,-0000075,+0004133,-0000790,+0000516,-0002358,15:04:54.146918
0.100610,+0000014,-0000021,-0000011,+0000062,-0000090,+0004156,-0000790,+0000516,-0002358,15:04:54.146918
0.100941,+0000006,-0000012,-0000013,+0000059,-0000091,+0004150,-0000810,+0000528,-0002328,15:04:54.146918
0.101274,+0000013,-0000023,-0000010,+0000082,-0000088,+0004166,-0000810,+0000528,-0002328,15:04:54.146918
0.101606,+0000010,-0000013,-0000002,+0000072,-0000111,+0004142,-0000810,+0000528,-0002328,15:04:54.146918
0.101940,+0000017,-0000020,-0000016,+0000064,-0000101,+0004157,-0000800,+0000510,-0002353,15:04:54.146918
0.102274,+0000016,-0000034,-0000002,+0000061,-0000102,+0004151,-0000800,+0000510,-0002353,15:04:54.146918
0.102606,+0000008,-0000029,-0000011,+0000084,-0000097,+0004129,-0000800,+0000510,-0002353,15:04:54.146918
0.102939,+0000009,-0000019,-0000018,+0000076,-0000091,+0004153,-0000814,+0000510,-0002322,15:04:54.146918
0.103271,+0000000,-0000013,-0000002,+0000056,-0000113,+0004160,-0000814,+0000510,-0002322,15:04:54.146918
0.103604,+0000010,-0000013,+0000004,+0000058,-0000099,+0004144,-0000814,+0000510,-0002322,15:04:54.146918
0.103937,+0000017,-0000034,-0000007,+0000054,-0000077,+0004155,-0000818,+0000500,-0002324,15:04:54.146918
0.104270,+0000014,-0000019,-0000010,+0000081,-0000088,+0004156,-0000818,+0000500,-0002324,15:04:54.146918
0.104603,+0000008,-0000021,-0000015,+0000090,-0000082,+0004179,-0000818,+0000500,-0002324,15:04:54.146918
0.104936,+0000014,-0000016,-0000013,+0000068,-0000096,+0004162,-0000808,+0000512,-0002309,15:04:54.146918
0.105269,+0000007,+0000005,-0000005,+0000080,-0000091,+0004152,-0000808,+0000512,-0002309,15:04:54.146918
0.105602,+0000019,-0000026,-0000018,+0000068,-0000077,+0004152,-0000808,+0000512,-0002309,15:04:54.146918
0.105935,+0000027,-0000040,-0000007,+0000077,-0000081,+0004153,-0000810,+0000528,-0002331,15:04:54.146918
0.106268,+0000012,-0000031,-0000002,+0000060,-0000091,+0004164,-0000810,+0000528,-0002331,15:04:54.146918
0.106601,+0000019,-0000023,-0000011,+0000072,-0000099,+0004152,-0000810,+0000528,-0002331,15:04:54.146918
0.106934,+0000000,-0000018,+0000000,+0000069,-0000109,+0004161,-0000800,+0000500,-0002330,15:04:54.146918
0.107267,-0000001,+0000008,-0000007,+0000064,-0000105,+0004160,-0000800,+0000500,-0002330,15:04:54.146918
0.107600,+0000019,-0000037,-0000007,+0000057,-0000110,+0004162,-0000800,+0000500,-0002330,15:04:54.146918
0.107933,+0000021,-0000032,-0000013,+0000083,-0000087,+0004170,-0000794,+0000516,-0002327,15:04:54.147918
0.108266,+0000011,-0000034,-0000012,+0000051,-0000077,+0004149,-0000794,+0000516,-0002327,15:04:54.147918
0.108599,+0000002,-0000004,+0000006,+0000091,-0000095,+0004136,-0000794,+0000516,-0002327,15:04:54.147918
0.108932,+0000019,-0000020,-0000021,+0000060,-0000115,+0004158,-0000796,+0000508,-0002324,15:04:54.147918
0.109265,+0000005,-0000013,+0000003,+0000066,-0000091,+0004141,-0000796,+0000508,-0002324,15:04:54.147918
0.109598,+0000025,-0000031,-0000007,+0000053,-0000080,+0004151,-0000796,+0000508,-0002324,15:04:54.147918
0.109931,+0000010,-0000043,-0000010,+0000046,-0000084,+0004156,-0000806,+0000522,-0002343,15:04:54.147918
0.110264,+0000022,-0000010,+0000008,+0000056,-0000082,+0004133,-0000806,+0000522,-0002343,15:04:54.147918
0.110597,+0000017,-0000019,-0000019,+0000044,-0000094,+0004145,-0000806,+0000522,-0002343,15:04:54.147918
0.110930,+0000000,-0000007,-0000007,+0000068,-0000099,+0004143,-0000800,+0000506,-0002334,15:04:54.147918
0.111263,+0000011,-0000029,-0000003,+0000080,-0000101,+0004165,-0000800,+0000506,-0002334,15:04:54.147918
0.111596,+0000013,-0000024,-0000018,+0000081,-0000089,+0004148,-0000800,+0000506,-0002334,15:04:54.147918
0.111929,+0000032,-0000016,-0000003,+0000069,-0000102,+0004158,-0000800,+0000526,-0002331,15:04:54.147918
0.112262,+0000019,-0000023,-0000007,+0000067,-0000087,+0004146,-0000800,+0000526,-0002331,15:04:54.147918
0.112595,-0000002,-0000016,-0000011,+0000062,-0000090,+0004152,-0000800,+0000526,-0002331,15:04:54.147918
0.112928,-0000002,+0000001,-0000002,+0000048,-0000083,+0004154,-0000800,+0000520,-0002346,15:04:54.147918
0.113261,+0000013,-0000015,+0000003,+0000082,-0000075,+0004168,-0000800,+0000520,-0002346,15:04:54.147918
0.113594,+0000005,-0000029,-0000008,+0000055,-0000121,+0004163,-0000800,+0000520,-0002346,15:04:54.147918
0.113927,+0000022,-0000022,-0000008,+0000077,-0000106,+0004146,-0000812,+0000500,-0002331,15:04:54.147918
0.114260,+0000016,-0000016,-0000014,+0000048,-0000098,+0004163,-0000812,+0000500,-0002331,15:04:54.147918
0.114593,+0000014,-0000023,-0000007,+0000055,-0000090,+0004135,-0000812,+0000500,-0002331,15:04:54.147918
0.114926,+0000006,-0000008,-0000010,+0000059,-0000088,+0004138,-0000790,+0000528,-0002331,15:04:54.147918
0.115259,+0000014,-0000022,-0000002,+0000060,-0000075,+0004147,-0000790,+0000528,-0002331,15:04:54.147918
0.115592,+0000009,-0000035,-0000015,+0000056,-0000084,+0004158,-0000790,+0000528,-0002331,15:04:54.147918
0.115925,+0000016,-0000039,-0000015,+0000068,-0000095,+0004160,-0000798,+0000496,-0002348,15:04:54.147918
0.116258,+0000019,-0000023,-0000008,+0000060,-0000093,+0004138,-0000798,+0000496,-0002348,15:04:54.147918
0.116591,+0000024,-0000020,+0000003,+0000072,-0000099,+0004136,-0000798,+0000496,-0002348,15:04:54.147918
0.116924,-0000007,-0000008,-0000015,+0000069,-0000070,+0004149,-0000786,+0000520,-0002312,15:04:54.147918
0.117257,+0000011,-0000013,-0000011,+0000054,-0000088,+0004147,-0000786,+0000520,-0002312,15:04:54.147918
0.117590,+0000020,-0000035,-0000010,+0000059,-0000097,+0004151,-0000786,+0000520,-0002312,15:04:54.147918
0.117923,+0000021,-0000034,-0000008,+0000080,-0000072,+0004157,-0000794,+0000518,-0002337,15:04:54.147918
0.118256,+0000013,-0000020,-0000015,+0000095,-0000093,+0004167,-0000794,+0000518,-0002337,15:04:54.147918
0.118589,+0000008,-0000019,-0000002,+0000076,-0000093,+0004163,-0000794,+0000518,-0002337,15:04:54.147918
0.118922,+0000013,-0000002,-0000005,+0000079,-0000084,+0004162,-0000792,+0000508,-0002354,15:04:54.147918
0.119255,+0000009,-0000034,-0000010,+0000060,-0000096,+0004154,-0000792,+0000508,-0002354,15:04:54.147918
0.119588,+0000033,-0000035,-0000008,+0000069,-0000090,+0004149,-0000792,+0000508,-0002354,15:04:54.147918
0.119921,+0000017,-0000023,-0000011,+0000075,-0000086,+0004162,-0000802,+0000526,-0002360,15:04:54.147918
0.120254,+0000014,-0000030,-0000013,+0000065,-0000069,+0004159,-0000802,+0000526,-0002360,15:04:54.147918
0.120587,+0000013,-0000002,-0000013,+0000071,-0000101,+0004146,-0000802,+0000526,-0002360,15:04:54.147918
0.120920,+0000010,-0000010,+0000005,+0000073,-0000096,+0004154,-0000786,+0000516,-0002346,15:04:54.147918
0.121253,+0000009,-0000026,-0000003,+0000049,-0000089,+0004165,-0000786,+0000516,-0002346,15:04:54.147918
0.121586,+0000021,-0000043,-0000022,+0000042,-0000076,+0004166,-0000786,+0000516,-0002346,15:04:54.147918
0.121919,+0000010,-0000027,+0000009,+0000039,-0000064,+0004157,-0000788,+0000512,-0002373,15:04:54.147918
0.122252,-0000006,-0000007,+0000000,+0000048,-0000090,+0004152,-0000788,+0000512,-0002373,15:04:54.147918
0.122585,+0000003,-0000007,-0000013,+0000074,-0000125,+0004144,-0000788,+0000512,-0002373,15:04:54.147918
0.122918,+0000003,-0000025,-0000011,+0000072,-0000098,+0004151,-0000806,+0000506,-0002338,15:04:54.147918
0.123251,+0000025,-0000028,-0000005,+0000051,-0000101,+0004138,-0000806,+0000506,-0002338,15:04:54.147918
0.123584,+0000021,-0000037,-0000012,+0000057,-0000097,+0004172,-0000806,+0000506,-0002338,15:04:54.147918
0.123917,+0000003,-0000021,-0000011,+0000079,-0000076,+0004154,-0000784,+0000518,-0002337,15:04:54.147918
0.124250,+0000009,-0000013,-0000002,+0000044,-0000055,+0004157,-0000784,+0000518,-0002337,15:04:54.147918
0.124583,+0000000,-0000004,+0000003,+0000074,-0000080,+0004155,-0000784,+0000518,-0002337,15:04:54.147918
0.124916,+0000013,-0000027,-0000015,+0000073,-0000077,+0004164,-0000800,+0000510,-0002344,15:04:54.147918
0.125249,+0000008,-0000034,-0000008,+0000067,-0000081,+0004163,-0000800,+0000510,-0002344,15:04:54.147918
0.125582,+0000035,-0000021,-0000002,+0000053,-0000093,+0004142,-0000800,+0000510,-0002344,15:04:54.147918
0.125915,+0000007,-0000012,-0000011,+0000059,-0000084,+0004144,-0000802,+0000496,-0002333,15:04:54.147918
0.126248,+0000017,-0000017,-0000010,+0000051,-0000105,+0004128,-0000802,+0000496,-0002333,15:04:54.147918
0.126581,-0000002,-0000013,-0000007,+0000064,-0000094,+0004124,-0000802,+0000496,-0002333,15:04:54.147918
0.126914,+0000014,-0000021,-0000018,+0000073,-0000083,+0004162,-0000812,+0000514,-0002361,15:04:54.147918
0.127247,+0000010,-0000018,-0000013,+0000073,-0000070,+0004150,-0000812,+0000514,-0002361,15:04:54.147918
0.127580,+0000021,-0000026,-0000010,+0000071,-0000095,+0004149,-0000812,+0000514,-0002361,15:04:54.147918
0.127913,+0000021,-0000023,-0000005,+0000064,-0000093,+0004154,-0000816,+0000504,-0002343,15:04:54.147918
0.128246,+0000014,-0000016,-0000014,+0000061,-0000082,+0004149,-0000816,+0000504,-0002343,15:04:54.147918
0.128579,+0000009,-0000004,-0000005,+0000064,-0000088,+0004139,-0000816,+0000504,-0002343,15:04:54.147918
0.128912,+0000006,-0000026,-0000014,+0000062,-0000104,+0004159,-0000826,+0000510,-0002331,15:04:54.147918
0.129245,+0000011,-0000024,-0000004,+0000071,-0000087,+0004136,-0000826,+0000510,-0002331,15:04:54.147918
0.129578,+0000019,-0000037,-0000019,+0000063,-0000103,+0004139,-0000826,+0000510,-0002331,15:04:54.147918
0.129911,+0000008,-0000031,-0000004,+0000078,-0000092,+0004145,-0000804,+0000504,-0002327,15:04:54.147918
0.130244,+0000016,-0000018,-0000005,+0000070,-0000108,+0004163,-0000804,+0000504,-0002327,15:04:54.147918
0.130577,+0000000,-0000007,-0000005,+0000067,-0000072,+0004169,-0000804,+0000504,-0002327,15:04:54.147918
0.130910,+0000014,-0000029,-0000016,+0000086,-0000083,+0004161,-0000824,+0000496,-0002346,15:04:54.147918
0.131243,+0000014,-0000015,+0000004,+0000080,-0000098,+0004164,-0000824,+0000496,-0002346,15:04:54.147918
0.131576,+0000035,-0000055,-0000016,+0000061,-0000104,+0004155,-0000824,+0000496,-0002346,15:04:54.147918
0.131909,-0000003,-0000022,-0000014,+0000067,-0000112,+0004144,-0000792,+0000512,-0002349,15:04:54.147918
0.132242,+0000022,-0000028,-0000006,+0000058,-0000107,+0004139,-0000792,+0000512,-0002349,15:04:54.147918
0.132575,+0000010,-0000002,-0000008,+0000039,-0000093,+0004162,-0000792,+0000512,-0002349,15:04:54.147918
0.132908,+0000025,-0000024,+0000003,+0000077,-0000093,+0004144,-0000790,+0000506,-0002346,15:04:54.147918
0.133241,+0000017,-0000028,-0000010,+0000069,-0000094,+0004151,-0000790,+0000506,-0002346,15:04:54.147918
0.133574,+0000019,-0000045,-0000013,+0000064,-0000096,+0004155,-0000790,+0000506,-0002346,15:04:54.147918
0.133907,+0000020,-0000036,-0000008,+0000079,-0000076,+0004154,-0000794,+0000510,-0002357,15:04:54.147918
0.134240,+0000000,+0000005,-0000002,+0000082,-0000102,+0004163,-0000794,+0000510,-0002357,15:04:54.147918
0.134573,+0000000,-0000015,-0000002,+0000066,-0000086,+0004163,-0000794,+0000510,-0002357,15:04:54.147918
0.134906,+0000022,-0000039,-0000008,+0000071,-0000084,+0004154,-0000788,+0000512,-0002344,15:04:54.147918
0.135239,+0000013,-0000023,-0000005,+0000069,-0000092,+0004151,-0000788,+0000512,-0002344,15:04:54.147918
0.135572,+0000018,-0000035,-0000010,+0000077,-0000075,+0004140,-0000788,+0000512,-0002344,15:04:54.147918
0.135905,+0000006,-0000008,-0000002,+0000066,-0000090,+0004168,-0000806,+0000504,-0002361,15:04:54.147918
0.136238,+0000016,-0000022,-0000010,+0000073,-0000095,+0004159,-0000806,+0000504,-0002361,15:04:54.147918
0.136571,+0000004,-0000016,-0000008,+0000052,-0000088,+0004158,-0000806,+0000504,-0002361,15:04:54.147918
0.136904,+0000029,-0000029,-0000018,+0000051,-0000081,+0004151,-0000798,+0000522,-0002327,15:04:54.147918
0.137237,+0000018,-0000039,-0000015,+0000064,-0000081,+0004147,-0000798,+0000522,-0002327,15:04:54.147918
0.137570,+0000024,-0000021,-0000010,+0000055,-0000084,+0004155,-0000798,+0000522,-0002327,15:04:54.147918
0.137903,+0000005,-0000007,-0000008,+0000054,-0000095,+0004168,-0000808,+0000516,-0002332,15:04:54.147918
0.138236,+0000018,-0000021,-0000011,+0000059,-0000103,+0004150,-0000808,+0000516,-0002332,15:04:54.147918
0.138571,+0000010,-0000013,-0000006,+0000060,-0000099,+0004157,-0000808,+0000516,-0002332,15:04:54.172934
0.138902,+0000011,-0000018,-0000003,+0000060,-0000097,+0004151,-0000800,+0000524,-0002328,15:04:54.172934
0.139239,+0000027,-0000029,-0000008,+0000074,-0000086,+0004154,-0000800,+0000524,-0002328,15:04:54.172934
0.139796,+0000011,-0000021,-0000012,+0000067,-0000089,+0004137,-0000800,+0000524,-0002328,15:04:54.172934
0.139992,+0000011,-0000021,-0000012,+0000067,-0000089,+0004137,-0000816,+0000508,-0002342,15:04:54.172934
0.140340,+0000019,-0000021,-0000015,+0000062,-0000091,+0004166,-0000816,+0000508,-0002342,15:04:54.172934
0.140764,+0000008,+0000003,-0000005,+0000078,-0000101,+0004139,-0000816,+0000508,-0002342,15:04:54.172934
0.140931,+0000017,-0000029,-0000015,+0000063,-0000082,+0004138,-0000796,+0000508,-0002337,15:04:54.172934
0.141236,+0000002,-0000015,+0000000,+0000062,-0000114,+0004156,-0000796,+0000508,-0002337,15:04:54.172934
0.141566,+0000013,-0000034,-0000004,+0000060,-0000085,+0004147,-0000796,+0000508,-0002337,15:04:54.172934
0.141899,+0000008,-0000008,-0000015,+0000062,-0000090,+0004147,-0000818,+0000510,-0002339,15:04:54.172934
0.142232,+0000002,-0000021,+0000005,+0000070,-0000090,+0004161,-0000818,+0000510,-0002339,15:04:54.172934
0.142565,+0000008,-0000023,-0000007,+0000060,-0000090,+0004168,-0000818,+0000510,-0002339,15:04:54.172934
0.142898,+0000015,-0000032,-0000012,+0000060,-0000100,+0004149,-0000808,+0000488,-0002328,15:04:54.172934
0.143244,+0000014,-0000034,-0000010,+0000063,-0000094,+0004165,-0000808,+0000488,-0002328,15:04:54.172934
0.143564,+0000009,-0000015,-0000011,+0000068,-0000098,+0004154,-0000808,+0000488,-0002328,15:04:54.172934
0.143897,+0000005,-0000014,+0000001,+0000066,-0000107,+0004136,-0000814,+0000512,-0002332,15:04:54.172934
0.144243,-0000013,+0000001,-0000010,+0000071,-0000090,+0004178,-0000814,+0000512,-0002332,15:04:54.172934
0.144563,+0000008,-0000021,-0000005,+0000064,-0000105,+0004172,-0000814,+0000512,-0002332,15:04:54.172934
0.144896,+0000028,-0000031,-0000010,+0000068,-0000079,+0004152,-0000810,+0000492,-0002338,15:04:54.172934
0.145242,+0000017,-0000039,-0000021,+0000047,-0000086,+0004152,-0000810,+0000492,-0002338,15:04:54.172934
0.145562,+0000019,-0000026,-0000010,+0000071,-0000089,+0004160,-0000810,+0000492,-0002338,15:04:54.172934
0.145896,+0000003,-0000002,+0000003,+0000074,-0000084,+0004147,-0000812,+0000512,-0002335,15:04:54.172934
0.146228,+0000007,+0000000,+0000009,+0000070,-0000087,+0004159,-0000812,+0000512,-0002335,15:04:54.172934
0.146561,+0000019,-0000036,-0000010,+0000057,-0000104,+0004150,-0000812,+0000512,-0002335,15:04:54.172934
0.146894,+0000027,-0000023,-0000007,+0000076,-0000086,+0004134,-0000806,+0000520,-0002328,15:04:54.172934
0.147227,+0000022,-0000029,-0000018,+0000061,-0000095,+0004145,-0000806,+0000520,-0002328,15:04:54.172934
0.147560,+0000019,-0000027,-0000008,+0000054,-0000079,+0004155,-0000806,+0000520,-0002328,15:04:54.172934
0.147893,+0000002,-0000002,-0000007,+0000047,-0000110,+0004146,-0000814,+0000514,-0002340,15:04:54.172934
0.148226,+0000019,-0000014,-0000005,+0000056,-0000070,+0004160,-0000814,+0000514,-0002340,15:04:54.172934
0.148559,+0000006,-0000024,-0000010,+0000040,-0000079,+0004170,-0000814,+0000514,-0002340,15:04:54.172934
0.148892,+0000024,-0000034,-0000005,+0000069,-0000086,+0004159,-0000822,+0000520,-0002316,15:04:54.172934
0.149225,+0000019,-0000039,-0000015,+0000058,-0000085,+0004146,-0000822,+0000520,-0002316,15:04:54.172934
0.149558,+0000014,-0000023,-0000005,+0000057,-0000109,+0004153,-0000822,+0000520,-0002316,15:04:54.172934
0.149891,+0000011,-0000010,-0000011,+0000059,-0000098,+0004149,-0000782,+0000516,-0002326,15:04:54.172934
0.150224,+0000008,-0000020,-0000007,+0000064,-0000101,+0004137,-0000782,+0000516,-0002326,15:04:54.172934
0.150557,+0000013,-0000028,-0000008,+0000065,-0000081,+0004152,-0000782,+0000516,-0002326,15:04:54.172934
0.150890,+0000020,-0000034,-0000010,+0000066,-0000098,+0004149,-0000816,+0000522,-0002357,15:04:54.172934
0.151223,+0000022,-0000026,-0000011,+0000055,-0000098,+0004155,-0000816,+0000522,-0002357,15:04:54.172934
0.151556,+0000017,-0000010,-0000008,+0000047,-0000089,+0004144,-0000816,+0000522,-0002357,15:04:54.172934
0.151889,+0000009,-0000021,-0000007,+0000061,-0000093,+0004165,-0000810,+0000514,-0002358,15:04:54.172934
0.152222,+0000019,-0000027,+0000001,+0000064,-0000116,+0004151,-0000810,+0000514,-0002358,15:04:54.172934
0.152555,+0000010,-0000024,-0000008,+0000055,-0000057,+0004137,-0000810,+0000514,-0002358,15:04:54.172934
0.152888,+0000033,-0000045,-0000010,+0000084,-0000092,+0004148,-0000784,+0000526,-0002323,15:04:54.172934
0.153221,+0000017,-0000021,-0000010,+0000060,-0000090,+0004152,-0000784,+0000526,-0002323,15:04:54.172934
0.153559,+0000003,-0000026,-0000010,+0000065,-0000081,+0004176,-0000784,+0000526,-0002323,15:04:54.172934
0.153887,-0000008,-0000010,-0000007,+0000065,-0000071,+0004162,-0000822,+0000516,-0002303,15:04:54.172934
0.154220,+0000023,-0000011,-0000015,+0000076,-0000107,+0004142,-0000822,+0000516,-0002303,15:04:54.172934
0.154553,+0000011,-0000043,-0000008,+0000073,-0000100,+0004159,-0000822,+0000516,-0002303,15:04:54.172934
0.154886,+0000030,-0000032,-0000021,+0000059,-0000106,+0004152,-0000806,+0000502,-0002314,15:04:54.172934
0.155219,+0000013,-0000027,-0000011,+0000050,-0000103,+0004154,-0000806,+0000502,-0002314,15:04:54.172934
0.155553,-0000003,-0000015,-0000015,+0000064,-0000098,+0004162,-0000806,+0000502,-0002314,15:04:54.172934
0.155885,+0000005,-0000023,-0000008,+0000077,-0000072,+0004143,-0000808,+0000510,-0002318,15:04:54.172934
0.156218,+0000012,-0000005,-0000014,+0000070,-0000088,+0004166,-0000808,+0000510,-0002318,15:04:54.172934
0.156551,+0000024,-0000031,-0000010,+0000073,-0000092,+0004147,-0000808,+0000510,-0002318,15:04:54.172934
0.156884,+0000019,-0000037,+0000000,+0000066,-0000086,+0004143,-0000802,+0000496,-0002326,15:04:54.172934
0.157217,+0000009,-0000027,-0000011,+0000067,-0000085,+0004155,-0000802,+0000496,-0002326,15:04:54.172934
0.157550,+0000016,-0000021,-0000005,+0000059,-0000095,+0004138,-0000802,+0000496,-0002326,15:04:54.172934
0.157883,+0000003,+0000003,-0000010,+0000088,-0000084,+0004141,-0000808,+0000516,-0002320,15:04:54.172934
0.158216,+0000008,-0000010,+0000001,+0000067,-0000077,+0004152,-0000808,+0000516,-0002320,15:04:54.172934
0.158549,+0000016,-0000024,-0000011,+0000052,-0000086,+0004154,-0000808,+0000516,-0002320,15:04:54.172934
0.158882,+0000028,-0000045,-0000018,+0000073,-0000101,+0004141,-0000808,+0000508,-0002346,15:04:54.172934
0.159215,+0000010,-0000010,-0000008,+0000060,-0000105,+0004146,-0000808,+0000508,-0002346,15:04:54.172934
0.159548,+0000006,-0000032,-0000014,+0000065,-0000108,+0004158,-0000808,+0000508,-0002346,15:04:54.172934
0.159881,+0000014,-0000010,-0000002,+0000068,-0000093,+0004136,-0000810,+0000526,-0002348,15:04:54.172934
0.160214,+0000019,-0000029,-0000002,+0000070,-0000099,+0004134,-0000810,+0000526,-0002348,15:04:54.172934
0.160547,+0000028,-0000038,-0000005,+0000068,-0000096,+0004145,-0000810,+0000526,-0002348,15:04:54.172934
0.160880,+0000020,-0000030,-0000011,+0000052,-0000091,+0004153,-0000828,+0000520,-0002315,15:04:54.172934
0.161213,+0000010,-0000032,-0000016,+0000051,-0000078,+0004156,-0000828,+0000520,-0002315,15:04:54.172934
0.161546,-0000011,-0000003,-0000002,+0000049,-0000106,+0004148,-0000828,+0000520,-0002315,15:04:54.172934
0.161879,+0000019,-0000002,-0000008,+0000072,-0000105,+0004151,-0000800,+0000512,-0002335,15:04:54.172934
0.162212,+0000000,-0000024,-0000013,+0000059,-0000069,+0004159,-0000800,+0000512,-0002335,15:04:54.172934
0.162545,+0000022,-0000027,-0000003,+0000075,-0000085,+0004166,-0000800,+0000512,-0002335,15:04:54.172934
0.162878,+0000033,-0000042,-0000019,+0000057,-0000091,+0004144,-0000812,+0000492,-0002340,15:04:54.172934
0.163211,+0000003,-0000015,-0000018,+0000051,-0000083,+0004151,-0000812,+0000492,-0002340,15:04:54.172934
0.163544,+0000005,-0000005,-0000005,+0000078,-0000083,+0004152,-0000812,+0000492,-0002340,15:04:54.172934
0.163877,+0000010,-0000019,-0000005,+0000069,-0000080,+0004168,-0000812,+0000524,-0002342,15:04:54.172934
0.164210,+0000007,-0000027,-0000019,+0000052,-0000090,+0004174,-0000812,+0000524,-0002342,15:04:54.179034
0.164543,+0000033,-0000043,-0000008,+0000061,-0000076,+0004143,-0000812,+0000524,-0002342,15:04:54.179034
0.164876,+0000027,-0000020,-0000006,+0000053,-0000105,+0004160,-0000812,+0000524,-0002341,15:04:54.179034
0.165209,-0000003,-0000024,-0000014,+0000047,-0000094,+0004164,-0000812,+0000524,-0002341,15:04:54.179034
0.165542,+0000022,-0000023,-0000013,+0000057,-0000093,+0004154,-0000812,+0000524,-0002341,15:04:54.179034
0.165875,+0000008,-0000003,-0000004,+0000051,-0000101,+0004145,-0000826,+0000504,-0002325,15:04:54.179034
0.166208,+0000031,-0000026,+0000000,+0000053,-0000112,+0004156,-0000826,+0000504,-0002325,15:04:54.179034
0.166541,+0000010,-0000029,-0000007,+0000060,-0000093,+0004159,-0000826,+0000504,-0002325,15:04:54.179034
0.166874,+0000022,-0000031,-0000021,+0000079,-0000105,+0004170,-0000814,+0000520,-0002347,15:04:54.179034
0.167207,+0000003,-0000021,-0000005,+0000073,-0000089,+0004155,-0000814,+0000520,-0002347,15:04:54.179034
0.167540,+0000008,-0000015,-0000013,+0000052,-0000101,+0004152,-0000814,+0000520,-0002347,15:04:54.179034
0.167873,+0000002,-0000010,-0000004,+0000060,-0000096,+0004148,-0000810,+0000520,-0002329,15:04:54.179034
0.168206,+0000036,-0000038,+0000003,+0000064,-0000080,+0004152,-0000810,+0000520,-0002329,15:04:54.179034
0.168539,+0000028,-0000039,-0000022,+0000042,-0000082,+0004144,-0000810,+0000520,-0002329,15:04:54.179034
0.168872,+0000006,-0000019,-0000002,+0000049,-0000095,+0004138,-0000814,+0000506,-0002345,15:04:54.179034
0.169205,+0000025,-0000023,-0000019,+0000065,-0000083,+0004162,-0000814,+0000506,-0002345,15:04:54.179034
0.169538,-0000002,-0000011,-0000004,+0000077,-0000112,+0004178,-0000814,+0000506,-0002345,15:04:54.179034
0.169883,+0000025,-0000016,-0000018,+0000083,-0000095,+0004157,-0000790,+0000504,-0002325,15:04:54.179034
0.170204,+0000005,-0000018,-0000006,+0000081,-0000073,+0004146,-0000790,+0000504,-0002325,15:04:54.179034
0.170537,+0000022,-0000042,-0000014,+0000069,-0000086,+0004174,-0000790,+0000504,-0002325,15:04:54.179034
0.170870,+0000016,-0000013,-0000002,+0000072,-0000100,+0004184,-0000812,+0000502,-0002328,15:04:54.179034
0.171203,+0000019,-0000019,-0000015,+0000061,-0000100,+0004144,-0000812,+0000502,-0002328,15:04:54.179034
0.171536,+0000002,-0000021,-0000003,+0000065,-0000101,+0004155,-0000812,+0000502,-0002328,15:04:54.179034
0.171869,+0000003,-0000023,+0000006,+0000069,-0000063,+0004144,-0000810,+0000514,-0002342,15:04:54.179034
0.172202,+0000025,-0000034,-0000015,+0000068,-0000070,+0004144,-0000810,+0000514,-0002342,15:04:54.179034
0.172535,+0000019,-0000034,-0000015,+0000085,-0000079,+0004150,-0000810,+0000514,-0002342,15:04:54.179034
0.172868,+0000014,-0000026,-0000007,+0000064,-0000086,+0004164,-0000812,+0000510,-0002372,15:04:54.179034
0.173201,+0000010,-0000024,-0000010,+0000052,-0000093,+0004136,-0000812,+0000510,-0002372,15:04:54.179034
0.173656,+0000006,-0000013,-0000003,+0000055,-0000096,+0004145,-0000812,+0000510,-0002372,15:04:54.179034
0.173875,+0000013,-0000019,-0000013,+0000074,-0000090,+0004149,-0000806,+0000520,-0002341,15:04:54.179034
0.174205,+0000018,-0000024,+0000003,+0000064,-0000081,+0004147,-0000806,+0000520,-0002341,15:04:54.179034
0.174533,+0000010,-0000027,-0000023,+0000060,-0000087,+0004160,-0000806,+0000520,-0002341,15:04:54.179034
0.174867,+0000000,-0000010,+0000003,+0000065,-0000090,+0004155,-0000806,+0000504,-0002338,15:04:54.179034
0.175199,-0000013,+0000006,+0000004,+0000074,-0000095,+0004150,-0000806,+0000504,-0002338,15:04:54.179034
0.175534,+0000011,-0000016,-0000018,+0000050,-0000077,+0004153,-0000806,+0000504,-0002338,15:04:54.179034
0.175866,+0000011,-0000026,+0000001,+0000060,-0000088,+0004158,-0000810,+0000508,-0002311,15:04:54.179034
0.176200,+0000017,-0000040,-0000008,+0000049,-0000087,+0004168,-0000810,+0000508,-0002311,15:04:54.179034
0.176532,+0000021,-0000039,-0000019,+0000044,-0000093,+0004141,-0000810,+0000508,-0002311,15:04:54.179034
0.176865,+0000016,-0000018,-0000008,+0000070,-0000102,+0004142,-0000804,+0000514,-0002338,15:04:54.179034
0.177198,+0000006,-0000013,-0000007,+0000065,-0000102,+0004166,-0000804,+0000514,-0002338,15:04:54.179034
0.177531,+0000008,-0000021,-0000008,+0000064,-0000095,+0004147,-0000804,+0000514,-0002338,15:04:54.179034
0.177863,+0000009,-0000016,+0000000,+0000070,-0000095,+0004141,-0000804,+0000506,-0002324,15:04:54.179034
0.178196,+0000021,-0000042,-0000013,+0000036,-0000083,+0004169,-0000804,+0000506,-0002324,15:04:54.179034
0.178529,+0000021,-0000031,+0000004,+0000069,-0000073,+0004140,-0000804,+0000506,-0002324,15:04:54.179034
0.178862,-0000003,-0000004,-0000013,+0000052,-0000081,+0004136,-0000810,+0000496,-0002335,15:04:54.179034
0.179195,+0000014,-0000020,-0000014,+0000053,-0000088,+0004156,-0000810,+0000496,-0002335,15:04:54.179034
0.179528,+0000003,-0000018,-0000002,+0000049,-0000099,+0004150,-0000810,+0000496,-0002335,15:04:54.179034
0.179861,+0000019,-0000029,-0000011,+0000057,-0000098,+0004166,-0000804,+0000506,-0002333,15:04:54.179034
0.180194,+0000016,-0000034,-0000016,+0000058,-0000082,+0004159,-0000804,+0000506,-0002333,15:04:54.179034
0.180527,+0000006,-0000035,-0000005,+0000053,-0000083,+0004151,-0000804,+0000506,-0002333,15:04:54.179034
0.180860,+0000012,-0000013,-0000005,+0000050,-0000098,+0004148,-0000798,+0000510,-0002328,15:04:54.179034
0.181193,-0000002,-0000002,-0000005,+0000066,-0000091,+0004154,-0000798,+0000510,-0002328,15:04:54.179034
0.181526,+0000016,-0000024,-0000006,+0000059,-0000099,+0004163,-0000798,+0000510,-0002328,15:04:54.179034
0.181859,+0000024,-0000034,-0000007,+0000050,-0000085,+0004158,-0000802,+0000516,-0002336,15:04:54.179034
0.182192,+0000017,-0000027,-0000007,+0000059,-0000074,+0004146,-0000802,+0000516,-0002336,15:04:54.179034
0.182525,+0000021,-0000036,-0000017,+0000047,-0000081,+0004150,-0000802,+0000516,-0002336,15:04:54.179034
0.182858,-0000006,+0000000,-0000008,+0000063,-0000083,+0004149,-0000806,+0000492,-0002321,15:04:54.179034
0.183191,+0000021,-0000023,-0000016,+0000050,-0000097,+0004146,-0000806,+0000492,-0002321,15:04:54.179034
0.183524,+0000005,-0000013,-0000010,+0000074,-0000096,+0004159,-0000806,+0000492,-0002321,15:04:54.179034
0.183857,+0000021,-0000029,-0000016,+0000058,-0000106,+0004167,-0000788,+0000504,-0002322,15:04:54.179034
0.184190,+0000018,-0000037,-0000005,+0000069,-0000092,+0004140,-0000788,+0000504,-0002322,15:04:54.179034
0.184523,+0000013,-0000029,-0000026,+0000082,-0000103,+0004147,-0000788,+0000504,-0002322,15:04:54.179034
0.184856,+0000010,-0000020,-0000002,+0000066,-0000118,+0004179,-0000796,+0000528,-0002334,15:04:54.179034
0.185189,+0000006,-0000014,-0000011,+0000060,-0000095,+0004156,-0000796,+0000528,-0002334,15:04:54.179034
0.185522,+0000003,-0000023,-0000013,+0000050,-0000074,+0004142,-0000796,+0000528,-0002334,15:04:54.179034
0.185855,+0000027,-0000042,-0000003,+0000035,-0000088,+0004147,-0000812,+0000508,-0002343,15:04:54.179034
0.186188,+0000011,-0000029,-0000018,+0000058,-0000092,+0004149,-0000812,+0000508,-0002343,15:04:54.179034
0.186521,+0000027,-0000037,-0000018,+0000083,-0000094,+0004148,-0000812,+0000508,-0002343,15:04:54.179034
0.186854,+0000009,-0000005,+0000001,+0000077,-0000077,+0004157,-0000800,+0000500,-0002310,15:04:54.179034
0.187187,+0000002,+0000001,-0000002,+0000046,-0000112,+0004151,-0000800,+0000500,-0002310,15:04:54.179034
0.187520,-0000006,-0000018,-0000001,+0000050,-0000100,+0004140,-0000800,+0000500,-0002310,15:04:54.179034
0.187853,+0000031,-0000040,-0000010,+0000060,-0000094,+0004169,-0000816,+0000514,-0002337,15:04:54.179034
0.188186,+0000022,-0000051,-0000016,+0000059,-0000093,+0004158,-0000816,+0000514,-0002337,15:04:54.179034
0.188520,+0000016,-0000011,-0000002,+0000053,-0000093,+0004172,-0000816,+0000514,-0002337,15:04:54.248769
0.188854,-0000006,+0000000,-0000011,+0000062,-0000084,+0004160,-0000794,+0000518,-0002328,15:04:54.248769
0.189189,+0000022,-0000016,+0000000,+0000060,-0000084,+0004150,-0000794,+0000518,-0002328,15:04:54.248769
0.189799,+0000022,-0000026,-0000008,+0000078,-0000108,+0004169,-0000794,+0000518,-0002328,15:04:54.248769
0.190012,+0000014,-0000018,-0000002,+0000055,-0000100,+0004165,-0000792,+0000504,-0002334,15:04:54.248769
0.190360,+0000005,-0000018,-0000002,+0000056,-0000076,+0004164,-0000792,+0000504,-0002334,15:04:54.248769
0.190534,+0000008,-0000028,-0000018,+0000058,-0000087,+0004157,-0000792,+0000504,-0002334,15:04:54.248769
0.190852,+0000024,-0000031,+0000003,+0000056,-0000101,+0004163,-0000800,+0000518,-0002313,15:04:54.248769
0.191194,+0000019,-0000018,-0000008,+0000056,-0000102,+0004145,-0000800,+0000518,-0002313,15:04:54.248769
0.191627,+0000003,-0000024,-0000018,+0000070,-0000106,+0004162,-0000800,+0000518,-0002313,15:04:54.248769
0.191849,+0000024,-0000024,-0000018,+0000070,-0000085,+0004161,-0000806,+0000524,-0002349,15:04:54.248769
0.192182,-0000008,-0000016,-0000006,+0000068,-0000083,+0004156,-0000806,+0000524,-0002349,15:04:54.249790
0.192516,+0000008,-0000008,-0000011,+0000072,-0000080,+0004156,-0000806,+0000524,-0002349,15:04:54.249790
0.192848,+0000013,-0000018,-0000003,+0000059,-0000085,+0004169,-0000804,+0000502,-0002329,15:04:54.249790
0.193181,+0000003,-0000030,-0000015,+0000061,-0000084,+0004143,-0000804,+0000502,-0002329,15:04:54.249790
0.193514,+0000017,-0000020,-0000010,+0000039,-0000087,+0004150,-0000804,+0000502,-0002329,15:04:54.249790
0.193847,+0000027,-0000022,-0000003,+0000070,-0000066,+0004172,-0000792,+0000508,-0002335,15:04:54.249790
0.194425,+0000017,-0000016,-0000016,+0000072,-0000090,+0004156,-0000792,+0000508,-0002335,15:04:54.249790
0.194615,+0000017,-0000016,-0000016,+0000072,-0000090,+0004156,-0000792,+0000508,-0002335,15:04:54.249790
0.194854,+0000003,-0000013,+0000003,+0000064,-0000088,+0004156,-0000814,+0000500,-0002321,15:04:54.249790
0.195180,+0000013,-0000027,-0000008,+0000060,-0000101,+0004123,-0000814,+0000500,-0002321,15:04:54.249790
0.195514,+0000023,-0000027,+0000001,+0000049,-0000086,+0004156,-0000814,+0000500,-0002321,15:04:54.249790
0.195846,+0000029,-0000029,-0000013,+0000052,-0000067,+0004144,-0000806,+0000514,-0002352,15:04:54.249790
0.196179,+0000011,-0000029,-0000021,+0000036,-0000092,+0004149,-0000806,+0000514,-0002352,15:04:54.249790
0.196511,+0000013,-0000011,-0000013,+0000063,-0000092,+0004156,-0000806,+0000514,-0002352,15:04:54.249790
0.196844,+0000007,-0000016,-0000005,+0000052,-0000100,+0004164,-0000810,+0000506,-0002325,15:04:54.249790
0.197179,+0000008,-0000013,-0000005,+0000038,-0000086,+0004140,-0000810,+0000506,-0002325,15:04:54.249790
0.197510,+0000015,-0000023,-0000013,+0000066,-0000101,+0004149,-0000810,+0000506,-0002325,15:04:54.249790
0.197843,+0000019,-0000034,+0000001,+0000055,-0000113,+0004162,-0000812,+0000500,-0002324,15:04:54.249790
0.198177,+0000013,-0000039,-0000019,+0000055,-0000102,+0004170,-0000812,+0000500,-0002324,15:04:54.249790
0.198510,-0000004,-0000012,-0000013,+0000076,-0000102,+0004162,-0000812,+0000500,-0002324,15:04:54.249790
0.198842,+0000011,-0000010,-0000003,+0000051,-0000088,+0004151,-0000798,+0000516,-0002330,15:04:54.249790
0.199175,+0000022,-0000035,-0000013,+0000036,-0000092,+0004145,-0000798,+0000516,-0002330,15:04:54.249790
0.199508,+0000019,-0000037,+0000006,+0000064,-0000103,+0004139,-0000798,+0000516,-0002330,15:04:54.249790
0.199841,+0000019,-0000040,-0000019,+0000035,-0000110,+0004141,-0000804,+0000520,-0002329,15:04:54.249790
0.200174,+0000018,-0000021,-0000007,+0000045,-0000096,+0004167,-0000804,+0000520,-0002329,15:04:54.249790
0.200508,+0000000,-0000031,-0000010,+0000066,-0000072,+0004153,-0000804,+0000520,-0002329,15:04:54.249790
0.200840,+0000002,-0000031,-0000011,+0000072,-0000089,+0004136,-0000816,+0000518,-0002333,15:04:54.249790
0.201173,+0000013,-0000026,-0000003,+0000051,-0000095,+0004159,-0000816,+0000518,-0002333,15:04:54.249790
0.201506,+0000019,-0000026,-0000003,+0000071,-0000103,+0004153,-0000816,+0000518,-0002333,15:04:54.249790
0.201839,+0000025,-0000048,-0000030,+0000066,-0000097,+0004158,-0000796,+0000510,-0002344,15:04:54.249790
0.202172,+0000011,-0000023,+0000009,+0000064,-0000089,+0004156,-0000796,+0000510,-0002344,15:04:54.249790
0.202505,-0000009,+0000012,-0000007,+0000077,-0000078,+0004160,-0000796,+0000510,-0002344,15:04:54.249790
0.202838,+0000016,-0000015,-0000013,+0000062,-0000128,+0004155,-0000806,+0000506,-0002318,15:04:54.249790
0.203171,+0000007,-0000037,-0000008,+0000057,-0000096,+0004142,-0000806,+0000506,-0002318,15:04:54.249790
0.203504,+0000025,-0000034,-0000008,+0000049,-0000074,+0004145,-0000806,+0000506,-0002318,15:04:54.249790
0.203837,+0000025,-0000045,-0000016,+0000051,-0000070,+0004167,-0000810,+0000522,-0002325,15:04:54.249790
0.204170,+0000016,-0000020,-0000007,+0000028,-0000075,+0004156,-0000810,+0000522,-0002325,15:04:54.249790
0.204503,+0000006,-0000013,-0000016,+0000054,-0000089,+0004157,-0000810,+0000522,-0002325,15:04:54.249790
0.204836,+0000011,-0000013,+0000011,+0000052,-0000074,+0004132,-0000786,+0000500,-0002329,15:04:54.249790
0.205169,+0000019,-0000027,-0000019,+0000043,-0000094,+0004157,-0000786,+0000500,-0002329,15:04:54.249790
0.205502,+0000029,-0000042,-0000013,+0000058,-0000091,+0004178,-0000786,+0000500,-0002329,15:04:54.249790
0.205835,+0000013,-0000018,-0000021,+0000046,-0000088,+0004167,-0000810,+0000522,-0002301,15:04:54.249790
0.206168,-0000005,-0000021,-0000004,+0000065,-0000094,+0004159,-0000810,+0000522,-0002301,15:04:54.249790
0.206501,+0000014,-0000010,-0000015,+0000069,-0000099,+0004142,-0000810,+0000522,-0002301,15:04:54.249790
0.206834,+0000001,-0000013,-0000010,+0000063,-0000095,+0004152,-0000798,+0000512,-0002303,15:04:54.249790
0.207167,+0000020,-0000024,-0000004,+0000048,-0000096,+0004154,-0000798,+0000512,-0002303,15:04:54.249790
0.207500,+0000030,-0000048,-0000002,+0000061,-0000084,+0004170,-0000798,+0000512,-0002303,15:04:54.249790
0.207833,+0000022,-0000010,+0000000,+0000072,-0000090,+0004147,-0000800,+0000508,-0002319,15:04:54.249790
0.208166,+0000002,-0000016,-0000005,+0000050,-0000099,+0004153,-0000800,+0000508,-0002319,15:04:54.249790
0.208499,+0000008,-0000018,-0000011,+0000066,-0000097,+0004144,-0000800,+0000508,-0002319,15:04:54.249790
0.208832,+0000020,-0000027,-0000011,+0000062,-0000101,+0004151,-0000802,+0000496,-0002318,15:04:54.249790
0.209165,+0000003,-0000027,-0000013,+0000042,-0000092,+0004160,-0000802,+0000496,-0002318,15:04:54.249790
0.209498,+0000003,-0000032,-0000005,+0000053,-0000111,+0004156,-0000802,+0000496,-0002318,15:04:54.249790
0.209831,+0000022,-0000027,-0000010,+0000041,-0000102,+0004151,-0000796,+0000506,-0002313,15:04:54.249790
0.210164,+0000016,-0000021,-0000007,+0000054,-0000088,+0004152,-0000796,+0000506,-0002313,15:04:54.249790
0.210497,+0000007,-0000011,+0000001,+0000054,-0000091,+0004144,-0000796,+0000506,-0002313,15:04:54.249790
0.210830,+0000019,-0000018,+0000001,+0000064,-0000097,+0004145,-0000800,+0000514,-0002348,15:04:54.249790
0.211163,+0000036,-0000035,-0000008,+0000078,-0000100,+0004144,-0000800,+0000514,-0002348,15:04:54.249790
0.211496,+0000030,-0000038,-0000010,+0000071,-0000081,+0004156,-0000800,+0000514,-0002348,15:04:54.249790
0.211829,+0000003,-0000023,-0000005,+0000067,-0000105,+0004155,-0000802,+0000500,-0002358,15:04:54.249790
0.212162,+0000011,-0000015,-0000011,+0000056,-0000096,+0004146,-0000802,+0000500,-0002358,15:04:54.249790
0.212495,-0000003,-0000015,-0000005,+0000066,-0000107,+0004155,-0000802,+0000500,-0002358,15:04:54.249790
0.212828,+0000000,-0000007,+0000000,+0000067,-0000098,+0004158,-0000794,+0000514,-0002337,15:04:54.249790
0.213161,+0000022,-0000034,-0000013,+0000052,-0000097,+0004154,-0000794,+0000514,-0002337,15:04:54.249790
0.213494,+0000027,-0000043,-0000018,+0000046,-0000106,+0004154,-0000794,+0000514,-0002337,15:04:54.249790
0.213827,+0000000,-0000024,-0000002,+0000071,-0000088,+0004142,-0000800,+0000510,-0002317,15:04:54.249790
0.214160,+0000025,-0000019,-0000013,+0000055,-0000091,+0004166,-0000800,+0000510,-0002317,15:04:54.249790
0.214493,+0000005,-0000007,+0000000,+0000081,-0000082,+0004156,-0000800,+0000510,-0002317,15:04:54.249790
0.214826,+0000013,-0000016,-0000005,+0000071,-0000081,+0004136,-0000798,+0000500,-0002338,15:04:54.249790
0.215159,+0000030,-0000053,-0000012,+0000063,-0000083,+0004126,-0000798,+0000500,-0002338,15:04:54.249790
0.215492,+0000013,-0000039,-0000010,+0000069,-0000079,+0004158,-0000798,+0000500,-0002338,15:04:54.249790
0.215825,+0000030,-0000032,-0000013,+0000056,-0000095,+0004136,-0000796,+0000504,-0002330,15:04:54.249790
0.216158,+0000005,-0000007,-0000011,+0000076,-0000098,+0004160,-0000796,+0000504,-0002330,15:04:54.249790
0.216491,+0000008,-0000015,+0000003,+0000067,-0000079,+0004146,-0000796,+0000504,-0002330,15:04:54.249790
0.216824,+0000022,-0000034,-0000013,+0000061,-0000070,+0004156,-0000798,+0000520,-0002320,15:04:54.249790
0.217157,+0000025,-0000029,-0000007,+0000065,-0000092,+0004162,-0000798,+0000520,-0002320,15:04:54.249790
0.217490,+0000027,-0000053,-0000019,+0000070,-0000079,+0004139,-0000798,+0000520,-0002320,15:04:54.249790
0.217823,+0000010,-0000028,-0000008,+0000061,-0000107,+0004157,-0000820,+0000522,-0002305,15:04:54.249790
0.218156,+0000011,-0000005,-0000013,+0000064,-0000081,+0004159,-0000820,+0000522,-0002305,15:04:54.249790
0.218489,+0000013,-0000021,-0000005,+0000073,-0000075,+0004152,-0000820,+0000522,-0002305,15:04:54.249790
0.218822,+0000014,-0000035,-0000008,+0000068,-0000092,+0004164,-0000800,+0000508,-0002310,15:04:54.249790
0.219155,+0000011,-0000024,-0000008,+0000056,-0000110,+0004144,-0000800,+0000508,-0002310,15:04:54.249790
0.219488,+0000023,-0000020,-0000005,+0000050,-0000093,+0004151,-0000800,+0000508,-0002310,15:04:54.249790
0.219821,+0000005,-0000013,-0000013,+0000073,-0000091,+0004176,-0000806,+0000522,-0002345,15:04:54.249790
0.220154,+0000013,-0000023,-0000003,+0000074,-0000097,+0004159,-0000806,+0000522,-0002345,15:04:54.249790
0.220487,+0000008,-0000016,-0000018,+0000055,-0000082,+0004150,-0000806,+0000522,-0002345,15:04:54.249790
0.220820,+0000014,-0000024,+0000008,+0000054,-0000097,+0004150,-0000812,+0000516,-0002310,15:04:54.249790
0.221153,+0000019,-0000050,-0000017,+0000045,-0000110,+0004171,-0000812,+0000516,-0002310,15:04:54.249790
0.221486,+0000014,-0000016,-0000005,+0000055,-0000099,+0004163,-0000812,+0000516,-0002310,15:04:54.249790
0.221819,+0000019,-0000011,-0000021,+0000062,-0000078,+0004164,-0000812,+0000496,-0002307,15:04:54.249790
0.222152,+0000013,-0000024,-0000003,+0000048,-0000088,+0004149,-0000812,+0000496,-0002307,15:04:54.249790
0.222485,+0000006,-0000013,-0000015,+0000049,-0000077,+0004137,-0000812,+0000496,-0002307,15:04:54.249790
0.222818,+0000013,-0000024,-0000019,+0000076,-0000090,+0004145,-0000802,+0000514,-0002320,15:04:54.249790
0.223151,+0000024,-0000029,+0000006,+0000068,-0000094,+0004142,-0000802,+0000514,-0002320,15:04:54.249790
0.223484,+0000016,-0000034,-0000019,+0000068,-0000099,+0004156,-0000802,+0000514,-0002320,15:04:54.249790
0.223817,+0000017,-0000008,-0000003,+0000082,-0000062,+0004177,-0000802,+0000494,-0002339,15:04:54.249790
0.224150,+0000013,-0000013,-0000012,+0000080,-0000058,+0004158,-0000802,+0000494,-0002339,15:04:54.249790
0.224483,+0000021,-0000016,-0000002,+0000055,-0000102,+0004152,-0000802,+0000494,-0002339,15:04:54.249790
0.224816,+0000016,-0000034,-0000018,+0000072,-0000100,+0004134,-0000794,+0000522,-0002311,15:04:54.249790
0.225149,+0000013,-0000026,-0000013,+0000075,-0000092,+0004156,-0000794,+0000522,-0002311,15:04:54.249790
0.225482,+0000019,-0000032,-0000016,+0000057,-0000081,+0004158,-0000794,+0000522,-0002311,15:04:54.249790
0.225815,+0000010,-0000018,+0000003,+0000043,-0000088,+0004146,-0000780,+0000498,-0002308,15:04:54.249790
0.226148,-0000002,-0000008,-0000013,+0000058,-0000097,+0004154,-0000780,+0000498,-0002308,15:04:54.249790
0.226481,+0000019,-0000027,-0000005,+0000048,-0000086,+0004129,-0000780,+0000498,-0002308,15:04:54.249790
0.226814,+0000010,-0000021,-0000003,+0000064,-0000089,+0004175,-0000806,+0000526,-0002346,15:04:54.249790
0.227147,+0000032,-0000056,-0000016,+0000052,-0000092,+0004134,-0000806,+0000526,-0002346,15:04:54.249790
0.227480,+0000019,-0000016,-0000016,+0000055,-0000073,+0004128,-0000806,+0000526,-0002346,15:04:54.249790
0.227813,+0000003,-0000028,-0000013,+0000045,-0000089,+0004159,-0000812,+0000508,-0002326,15:04:54.249790
0.228146,-0000001,-0000011,-0000010,+0000059,-0000094,+0004146,-0000812,+0000508,-0002326,15:04:54.249790
0.228479,+0000016,-0000018,-0000007,+0000074,-0000084,+0004150,-0000812,+0000508,-0002326,15:04:54.249790
0.228812,+0000020,-0000048,-0000008,+0000062,-0000092,+0004160,-0000812,+0000490,-0002330,15:04:54.249790
0.229145,+0000031,-0000029,-0000011,+0000063,-0000102,+0004138,-0000812,+0000490,-0002330,15:04:54.249790
0.229478,+0000014,-0000036,-0000024,+0000067,-0000097,+0004160,-0000812,+0000490,-0002330,15:04:54.249790
0.229811,+0000005,-0000008,-0000008,+0000058,-0000080,+0004165,-0000806,+0000512,-0002325,15:04:54.249790
0.230144,+0000008,-0000012,-0000008,+0000066,-0000087,+0004155,-0000806,+0000512,-0002325,15:04:54.249790
0.230477,+0000016,-0000024,-0000008,+0000062,-0000103,+0004139,-0000806,+0000512,-0002325,15:04:54.249790
0.230810,+0000028,-0000045,-0000016,+0000046,-0000106,+0004147,-0000798,+0000516,-0002298,15:04:54.249790
0.231143,+0000014,-0000026,-0000010,+0000064,-0000083,+0004138,-0000798,+0000516,-0002298,15:04:54.249790
0.231476,+0000014,-0000010,-0000007,+0000062,-0000085,+0004161,-0000798,+0000516,-0002298,15:04:54.249790
0.231809,+0000002,-0000019,-0000016,+0000058,-0000097,+0004164,-0000824,+0000504,-0002319,15:04:54.249790
0.232142,+0000009,-0000016,+0000008,+0000068,-0000083,+0004145,-0000824,+0000504,-0002319,15:04:54.249790
0.232475,+0000021,-0000022,-0000005,+0000039,-0000080,+0004142,-0000824,+0000504,-0002319,15:04:54.249790
0.232808,+0000027,-0000037,-0000012,+0000075,-0000086,+0004154,-0000790,+0000516,-0002317,15:04:54.249790
0.233141,+0000016,-0000020,-0000013,+0000066,-0000103,+0004144,-0000790,+0000516,-0002317,15:04:54.249790
0.233474,+0000002,+0000001,-0000007,+0000066,-0000085,+0004143,-0000790,+0000516,-0002317,15:04:54.249790
0.233807,+0000014,-0000029,-0000007,+0000071,-0000103,+0004147,-0000794,+0000520,-0002307,15:04:54.249790
0.234140,+0000014,-0000024,-0000016,+0000066,-0000088,+0004142,-0000794,+0000520,-0002307,15:04:54.249790
0.234473,+0000016,-0000016,+0000001,+0000041,-0000082,+0004165,-0000794,+0000520,-0002307,15:04:54.249790
0.234806,+0000036,-0000034,-0000008,+0000063,-0000087,+0004163,-0000812,+0000524,-0002345,15:04:54.249790
0.235139,+0000025,-0000037,-0000010,+0000057,-0000088,+0004155,-0000812,+0000524,-0002345,15:04:54.249790
0.235472,-0000003,-0000015,-0000007,+0000065,-0000077,+0004165,-0000812,+0000524,-0002345,15:04:54.249790
0.235805,+0000017,-0000014,-0000011,+0000063,-0000075,+0004152,-0000798,+0000526,-0002337,15:04:54.249790
0.236138,+0000006,-0000016,-0000007,+0000063,-0000074,+0004148,-0000798,+0000526,-0002337,15:04:54.249790
0.236471,+0000024,-0000043,+0000001,+0000058,-0000076,+0004153,-0000798,+0000526,-0002337,15:04:54.249790
0.236804,+0000028,-0000044,-0000027,+0000074,-0000082,+0004142,-0000810,+0000520,-0002327,15:04:54.249790
0.237137,+0000009,-0000024,-0000004,+0000057,-0000088,+0004150,-0000810,+0000520,-0002327,15:04:54.249790
0.237470,+0000006,-0000021,-0000003,+0000061,-0000101,+0004144,-0000810,+0000520,-0002327,15:04:54.249790
0.237803,+0000011,-0000021,-0000016,+0000071,-0000097,+0004143,-0000804,+0000522,-0002334,15:04:54.249790
0.238136,+0000003,-0000018,-0000013,+0000070,-0000075,+0004161,-0000804,+0000522,-0002334,15:04:54.249790
0.238470,+0000016,-0000027,-0000003,+0000059,-0000096,+0004150,-0000804,+0000522,-0002334,15:04:54.266790
0.238805,+0000032,-0000034,-0000014,+0000050,-0000092,+0004136,-0000816,+0000526,-0002336,15:04:54.266790
0.239137,+0000003,-0000016,-0000011,+0000057,-0000085,+0004148,-0000816,+0000526,-0002336,15:04:54.266790
0.239841,+0000010,-0000024,+0000003,+0000068,-0000086,+0004151,-0000816,+0000526,-0002336,15:04:54.266790
0.240356,+0000018,-0000035,-0000010,+0000052,-0000066,+0004147,-0000786,+0000520,-0002312,15:04:54.266790
0.240621,+0000018,-0000035,-0000010,+0000052,-0000095,+0004158,-0000786,+0000520,-0002312,15:04:54.266790
0.240818,+0000000,+0000000,+0000000,+0000054,-0000095,+0004158,-0000786,+0000520,-0002312,15:04:54.266790
0.241140,+0000021,-0000029,-0000010,+0000076,-0000113,+0004149,-0000786,+0000520,-0002324,15:04:54.266790
0.241468,+0000005,-0000029,-0000011,+0000053,-0000097,+0004121,-0000786,+0000520,-0002324,15:04:54.266790
0.241801,+0000030,-0000028,-0000007,+0000062,-0000087,+0004137,-0000786,+0000520,-0002324,15:04:54.266790
0.242132,+0000016,-0000032,-0000008,+0000067,-0000084,+0004145,-0000800,+0000502,-0002348,15:04:54.266790
0.242507,+0000013,-0000037,-0000013,+0000080,-0000087,+0004172,-0000800,+0000502,-0002348,15:04:54.266790
0.242798,+0000019,-0000032,-0000010,+0000074,-0000079,+0004127,-0000800,+0000502,-0002348,15:04:54.266790
0.243131,+0000027,-0000037,-0000011,+0000048,-0000082,+0004154,-0000802,+0000520,-0002305,15:04:54.270778
0.243464,+0000006,+0000003,-0000016,+0000063,-0000098,+0004151,-0000802,+0000520,-0002305,15:04:54.270778
0.243800,+0000010,-0000010,-0000001,+0000087,-0000106,+0004134,-0000802,+0000520,-0002305,15:04:54.270778
0.244131,+0000008,-0000029,-0000008,+0000074,-0000076,+0004129,-0000808,+0000496,-0002305,15:04:54.270778
0.244463,+0000016,-0000020,-0000010,+0000045,-0000085,+0004153,-0000808,+0000496,-0002305,15:04:54.272785
0.244797,+0000035,-0000044,-0000010,+0000055,-0000063,+0004153,-0000808,+0000496,-0002305,15:04:54.272785
0.245131,+0000021,-0000007,-0000014,+0000054,-0000071,+0004143,-0000802,+0000510,-0002314,15:04:54.272785
0.245462,+0000016,-0000023,-0000002,+0000063,-0000074,+0004162,-0000802,+0000510,-0002314,15:04:54.273781
0.245795,+0000002,-0000019,-0000002,+0000062,-0000088,+0004158,-0000802,+0000510,-0002314,15:04:54.273781
0.246131,+0000014,-0000035,-0000013,+0000058,-0000083,+0004151,-0000804,+0000498,-0002341,15:04:54.273781
0.246461,+0000021,-0000031,-0000002,+0000058,-0000104,+0004144,-0000804,+0000498,-0002341,15:04:54.274785
0.246794,+0000019,-0000013,-0000010,+0000042,-0000096,+0004159,-0000804,+0000498,-0002341,15:04:54.274785
0.247132,+0000007,-0000029,-0000005,+0000042,-0000102,+0004157,-0000798,+0000510,-0002328,15:04:54.274785
0.247460,+0000016,-0000011,-0000007,+0000094,-0000093,+0004144,-0000798,+0000510,-0002328,15:04:54.274785
0.247793,+0000016,-0000029,+0000000,+0000072,-0000098,+0004158,-0000798,+0000510,-0002328,15:04:54.274785
0.248131,+0000005,-0000021,-0000008,+0000076,-0000087,+0004151,-0000806,+0000494,-0002307,15:04:54.274785
0.248459,+0000028,-0000019,-0000008,+0000058,-0000098,+0004163,-0000806,+0000494,-0002307,15:04:54.274785
0.248792,+0000002,-0000029,-0000002,+0000064,-0000090,+0004156,-0000806,+0000494,-0002307,15:04:54.274785
0.249130,+0000019,-0000019,-0000005,+0000070,-0000090,+0004147,-0000810,+0000510,-0002327,15:04:54.274785
0.249458,+0000009,-0000026,-0000011,+0000059,-0000075,+0004144,-0000810,+0000510,-0002327,15:04:54.274785
0.249791,+0000015,-0000019,+0000000,+0000066,-0000088,+0004130,-0000810,+0000510,-0002327,15:04:54.274785
0.250129,+0000021,-0000035,-0000008,+0000062,-0000102,+0004156,-0000800,+0000520,-0002314,15:04:54.274785
0.250457,+0000011,-0000037,-0000018,+0000072,-0000090,+0004151,-0000800,+0000520,-0002314,15:04:54.274785
0.250790,+0000007,-0000011,+0000003,+0000078,-0000087,+0004164,-0000800,+0000520,-0002314,15:04:54.274785
0.251128,+0000021,-0000034,-0000021,+0000071,-0000082,+0004151,-0000808,+0000514,-0002306,15:04:54.274785
0.251456,+0000008,-0000002,-0000008,+0000071,-0000089,+0004157,-0000808,+0000514,-0002306,15:04:54.274785
0.251789,+0000014,-0000013,-0000003,+0000056,-0000082,+0004154,-0000808,+0000514,-0002306,15:04:54.274785
0.252127,+0000020,-0000039,-0000021,+0000064,-0000061,+0004144,-0000810,+0000502,-0002317,15:04:54.274785
0.252455,+0000019,-0000027,+0000004,+0000047,-0000099,+0004154,-0000810,+0000502,-0002317,15:04:54.275786
0.252788,+0000028,-0000032,-0000023,+0000056,-0000109,+0004154,-0000810,+0000502,-0002317,15:04:54.275786
0.253123,+0000000,-0000003,-0000015,+0000060,-0000090,+0004169,-0000814,+0000506,-0002329,15:04:54.277780
0.253454,+0000017,-0000016,+0000003,+0000070,-0000115,+0004154,-0000814,+0000506,-0002329,15:04:54.277780
0.253787,+0000016,-0000016,-0000003,+0000070,-0000102,+0004155,-0000814,+0000506,-0002329,15:04:54.277780
0.254124,+0000016,-0000037,-0000011,+0000058,-0000107,+0004158,-0000810,+0000506,-0002355,15:04:54.277780
0.254453,+0000017,-0000033,-0000013,+0000076,-0000072,+0004164,-0000810,+0000506,-0002355,15:04:54.277780
0.254786,+0000021,-0000026,-0000013,+0000062,-0000099,+0004148,-0000810,+0000506,-0002355,15:04:54.277780
0.255123,+0000011,-0000014,-0000004,+0000064,-0000083,+0004147,-0000814,+0000516,-0002309,15:04:54.277780
0.255452,+0000019,-0000011,-0000005,+0000053,-0000097,+0004153,-0000814,+0000516,-0002309,15:04:54.277780
0.255785,+0000014,-0000021,+0000000,+0000065,-0000106,+0004142,-0000814,+0000516,-0002309,15:04:54.277780
0.256123,+0000024,-0000033,-0000010,+0000051,-0000091,+0004139,-0000794,+0000514,-0002332,15:04:54.277780
0.256451,+0000022,-0000040,+0000001,+0000069,-0000108,+0004161,-0000794,+0000514,-0002332,15:04:54.277780
0.256784,+0000006,-0000018,-0000011,+0000064,-0000092,+0004166,-0000794,+0000514,-0002332,15:04:54.277780
0.257121,+0000000,+0000001,+0000000,+0000067,-0000092,+0004146,-0000806,+0000510,-0002334,15:04:54.277780
0.257450,+0000014,-0000029,-0000007,+0000096,-0000094,+0004144,-0000806,+0000510,-0002334,15:04:54.277780
0.257783,+0000008,-0000023,-0000007,+0000076,-0000078,+0004154,-0000806,+0000510,-0002334,15:04:54.277780
0.258120,+0000014,-0000037,-0000007,+0000052,-0000089,+0004143,-0000804,+0000496,-0002327,15:04:54.277780
0.258449,+0000025,-0000032,-0000005,+0000044,-0000069,+0004164,-0000804,+0000496,-0002327,15:04:54.277780
0.258782,+0000008,-0000018,-0000008,+0000057,-0000094,+0004161,-0000804,+0000496,-0002327,15:04:54.277780
0.259115,+0000008,-0000025,-0000010,+0000070,-0000098,+0004153,-0000794,+0000508,-0002314,15:04:54.277780
0.259448,+0000008,-0000023,-0000004,+0000046,-0000094,+0004157,-0000794,+0000508,-0002314,15:04:54.277780
0.259781,+0000019,-0000018,+0000000,+0000045,-0000092,+0004150,-0000794,+0000508,-0002314,15:04:54.278780
0.260115,+0000029,-0000039,-0000010,+0000051,-0000087,+0004151,-0000808,+0000528,-0002328,15:04:54.278780
0.260447,+0000028,-0000023,-0000002,+0000062,-0000101,+0004144,-0000808,+0000528,-0002328,15:04:54.278780
0.260780,+0000010,-0000013,-0000013,+0000063,-0000091,+0004153,-0000808,+0000528,-0002328,15:04:54.278780
0.261115,+0000007,-0000016,-0000010,+0000068,-0000101,+0004174,-0000812,+0000518,-0002335,15:04:54.278780
0.261446,+0000002,-0000031,-0000008,+0000059,-0000089,+0004163,-0000812,+0000518,-0002335,15:04:54.278780
0.261779,+0000019,-0000027,-0000008,+0000058,-0000076,+0004166,-0000812,+0000518,-0002335,15:04:54.278780
0.262116,+0000024,-0000027,-0000002,+0000072,-0000076,+0004162,-0000798,+0000526,-0002355,15:04:54.278780
0.262445,+0000024,-0000026,-0000019,+0000061,-0000109,+0004151,-0000798,+0000526,-0002355,15:04:54.278780
0.262778,-0000003,-0000023,-0000013,+0000069,-0000101,+0004140,-0000798,+0000526,-0002355,15:04:54.278780
0.263115,+0000016,-0000026,-0000004,+0000058,-0000085,+0004153,-0000792,+0000506,-0002327,15:04:54.278780
0.263444,+0000019,-0000005,-0000008,+0000064,-0000101,+0004137,-0000792,+0000506,-0002327,15:04:54.278780
0.263777,+0000014,-0000031,-0000016,+0000065,-0000071,+0004148,-0000792,+0000506,-0002327,15:04:54.278780
0.264114,+0000033,-0000048,-0000011,+0000052,-0000084,+0004145,-0000788,+0000518,-0002317,15:04:54.278780
0.264443,+0000018,-0000016,-0000003,+0000076,-0000107,+0004147,-0000788,+0000518,-0002317,15:04:54.278780
0.264776,+0000016,-0000016,-0000021,+0000074,-0000092,+0004157,-0000788,+0000518,-0002317,15:04:54.278780
0.265122,+0000000,-0000003,-0000012,+0000062,-0000092,+0004141,-0000800,+0000526,-0002323,15:04:54.278780
0.265442,+0000008,-0000028,-0000016,+0000061,-0000079,+0004149,-0000800,+0000526,-0002323,15:04:54.278780
0.265775,+0000006,-0000032,+0000001,+0000055,-0000107,+0004145,-0000800,+0000526,-0002323,15:04:54.278780
0.266121,+0000030,-0000035,-0000023,+0000065,-0000094,+0004163,-0000808,+0000504,-0002325,15:04:54.278780
0.266441,+0000008,-0000015,-0000024,+0000076,-0000090,+0004150,-0000808,+0000504,-0002325,15:04:54.278780
0.266774,+0000006,-0000015,+0000008,+0000082,-0000089,+0004172,-0000808,+0000504,-0002325,15:04:54.278780
0.267120,-0000001,-0000003,-0000016,+0000067,-0000082,+0004144,-0000800,+0000514,-0002311,15:04:54.278780
0.267440,+0000002,-0000027,-0000005,+0000065,-0000092,+0004156,-0000800,+0000514,-0002311,15:04:54.278780
0.267773,+0000016,-0000029,-0000001,+0000048,-0000090,+0004167,-0000800,+0000514,-0002311,15:04:54.278780
0.268119,+0000027,-0000034,-0000008,+0000058,-0000107,+0004158,-0000814,+0000516,-0002323,15:04:54.278780
0.268439,+0000009,-0000018,-0000008,+0000068,-0000084,+0004151,-0000814,+0000516,-0002323,15:04:54.278780
0.268772,-0000003,-0000016,-0000011,+0000068,-0000080,+0004140,-0000814,+0000516,-0002323,15:04:54.278780
0.269117,-0000005,+0000004,-0000002,+0000052,-0000093,+0004153,-0000798,+0000510,-0002328,15:04:54.278780
0.269438,+0000021,-0000031,-0000005,+0000057,-0000109,+0004144,-0000798,+0000510,-0002328,15:04:54.278780
0.269771,+0000036,-0000045,-0000022,+0000063,-0000105,+0004165,-0000798,+0000510,-0002328,15:04:54.278780
0.270104,+0000022,-0000029,-0000010,+0000064,-0000110,+0004136,-0000816,+0000504,-0002355,15:04:54.278780
0.270450,+0000011,-0000026,-0000005,+0000059,-0000107,+0004144,-0000816,+0000504,-0002355,15:04:54.278780
0.270770,+0000008,-0000018,-0000015,+0000059,-0000101,+0004162,-0000816,+0000504,-0002355,15:04:54.279789
0.271103,+0000020,-0000024,-0000004,+0000040,-0000101,+0004158,-0000804,+0000506,-0002325,15:04:54.279789
0.271436,+0000014,-0000026,+0000001,+0000058,-0000078,+0004152,-0000804,+0000506,-0002325,15:04:54.279789
0.271769,+0000026,-0000035,-0000010,+0000057,-0000084,+0004155,-0000804,+0000506,-0002325,15:04:54.279789
0.272102,+0000014,-0000034,-0000010,+0000070,-0000096,+0004149,-0000802,+0000502,-0002309,15:04:54.279789
0.272439,-0000006,-0000012,+0000009,+0000073,-0000095,+0004150,-0000802,+0000502,-0002309,15:04:54.279789
0.272768,+0000019,-0000021,-0000015,+0000074,-0000092,+0004155,-0000802,+0000502,-0002309,15:04:54.279789
0.273101,+0000007,-0000016,-0000017,+0000075,-0000095,+0004157,-0000810,+0000516,-0002318,15:04:54.279789
0.273476,+0000024,-0000018,+0000006,+0000056,-0000075,+0004156,-0000810,+0000516,-0002318,15:04:54.279789
0.273767,+0000024,-0000037,-0000010,+0000060,-0000085,+0004161,-0000810,+0000516,-0002318,15:04:54.279789
0.274100,+0000032,-0000002,+0000005,+0000075,-0000096,+0004167,-0000804,+0000502,-0002327,15:04:54.279789
0.274554,+0000003,-0000026,-0000019,+0000048,-0000069,+0004154,-0000804,+0000502,-0002327,15:04:54.279789
0.274767,+0000009,-0000022,-0000004,+0000051,-0000088,+0004151,-0000804,+0000502,-0002327,15:04:54.279789
0.275099,+0000003,-0000010,-0000010,+0000045,-0000088,+0004141,-0000808,+0000502,-0002324,15:04:54.279789
0.275432,+0000025,-0000040,-0000003,+0000067,-0000088,+0004156,-0000808,+0000502,-0002324,15:04:54.279789
0.275765,+0000025,-0000035,-0000011,+0000064,-0000086,+0004139,-0000808,+0000502,-0002324,15:04:54.279789
0.276098,+0000013,-0000029,-0000010,+0000070,-0000071,+0004146,-0000804,+0000520,-0002340,15:04:54.279789
0.276431,+0000033,-0000018,-0000003,+0000068,-0000107,+0004152,-0000804,+0000520,-0002340,15:04:54.279789
0.276764,-0000001,-0000018,-0000015,+0000056,-0000110,+0004159,-0000804,+0000520,-0002340,15:04:54.279789
0.277097,+0000010,-0000027,-0000004,+0000064,-0000094,+0004161,-0000806,+0000510,-0002327,15:04:54.279789
0.277430,+0000014,-0000023,-0000015,+0000079,-0000096,+0004145,-0000806,+0000510,-0002327,15:04:54.279789
0.278004,+0000019,-0000016,-0000018,+0000068,-0000103,+0004152,-0000806,+0000510,-0002327,15:04:54.279789
0.278208,+0000019,-0000016,-0000018,+0000068,-0000103,+0004159,-0000794,+0000504,-0002312,15:04:54.279789
0.278432,+0000011,-0000029,+0000001,+0000080,-0000106,+0004159,-0000794,+0000504,-0002312,15:04:54.279789
0.278763,+0000021,-0000015,+0000002,+0000058,-0000096,+0004134,-0000794,+0000504,-0002312,15:04:54.279789
0.279096,-0000003,-0000021,-0000005,+0000060,-0000096,+0004149,-0000814,+0000518,-0002316,15:04:54.279789
0.279428,+0000019,-0000026,-0000010,+0000069,-0000093,+0004160,-0000814,+0000518,-0002316,15:04:54.279789
0.279762,+0000017,-0000036,-0000016,+0000066,-0000102,+0004140,-0000814,+0000518,-0002316,15:04:54.279789
0.280094,+0000022,-0000032,-0000008,+0000072,-0000091,+0004134,-0000804,+0000518,-0002308,15:04:54.279789
0.280429,+0000003,-0000026,-0000010,+0000067,-0000103,+0004164,-0000804,+0000518,-0002308,15:04:54.279789
0.280760,+0000016,-0000010,-0000013,+0000046,-0000079,+0004158,-0000804,+0000518,-0002308,15:04:54.279789
0.281094,+0000022,-0000019,-0000012,+0000081,-0000085,+0004165,-0000804,+0000516,-0002336,15:04:54.279789
0.281427,+0000022,-0000027,-0000011,+0000074,-0000087,+0004146,-0000804,+0000516,-0002336,15:04:54.279789
0.281759,+0000019,-0000032,+0000005,+0000065,-0000102,+0004164,-0000804,+0000516,-0002336,15:04:54.279789
0.282093,+0000041,-0000034,-0000011,+0000054,-0000112,+0004176,-0000806,+0000514,-0002324,15:04:54.279789
0.282425,+0000005,-0000013,-0000016,+0000078,-0000088,+0004143,-0000806,+0000514,-0002324,15:04:54.279789
0.282758,+0000011,-0000010,-0000010,+0000065,-0000077,+0004142,-0000806,+0000514,-0002324,15:04:54.279789
0.283091,+0000017,-0000031,+0000000,+0000081,-0000081,+0004139,-0000790,+0000512,-0002308,15:04:54.279789
0.283424,+0000018,-0000032,-0000007,+0000060,-0000083,+0004147,-0000790,+0000512,-0002308,15:04:54.279789
0.283757,+0000019,-0000051,-0000027,+0000056,-0000095,+0004163,-0000790,+0000512,-0002308,15:04:54.279789
0.284090,+0000011,-0000015,+0000001,+0000062,-0000073,+0004168,-0000792,+0000510,-0002327,15:04:54.279789
0.284423,-0000005,-0000001,+0000000,+0000066,-0000097,+0004137,-0000792,+0000510,-0002327,15:04:54.279789
0.284756,+0000003,-0000016,-0000010,+0000044,-0000089,+0004147,-0000792,+0000510,-0002327,15:04:54.279789
0.285089,+0000009,-0000013,+0000000,+0000051,-0000107,+0004180,-0000792,+0000494,-0002312,15:04:54.279789
0.285422,+0000016,-0000042,-0000016,+0000065,-0000108,+0004157,-0000792,+0000494,-0002312,15:04:54.279789
0.285755,+0000036,-0000047,-0000002,+0000076,-0000108,+0004163,-0000792,+0000494,-0002312,15:04:54.279789
0.286088,+0000017,-0000018,-0000019,+0000064,-0000095,+0004164,-0000792,+0000510,-0002327,15:04:54.279789
0.286421,+0000008,-0000018,-0000002,+0000042,-0000088,+0004158,-0000792,+0000510,-0002327,15:04:54.279789
0.286754,+0000019,-0000021,-0000015,+0000055,-0000089,+0004174,-0000792,+0000510,-0002327,15:04:54.279789
0.287087,+0000011,-0000016,-0000006,+0000069,-0000092,+0004160,-0000800,+0000510,-0002338,15:04:54.279789
0.287420,+0000022,-0000034,+0000003,+0000066,-0000097,+0004168,-0000800,+0000510,-0002338,15:04:54.279789
0.287753,+0000024,-0000023,-0000012,+0000057,-0000087,+0004137,-0000800,+0000510,-0002338,15:04:54.279789
0.288086,+0000010,-0000011,+0000006,+0000073,-0000087,+0004143,-0000808,+0000512,-0002333,15:04:54.279789
0.288419,+0000008,-0000016,-0000015,+0000069,-0000087,+0004131,-0000808,+0000512,-0002333,15:04:54.316593
0.288754,+0000000,-0000034,-0000003,+0000050,-0000096,+0004146,-0000808,+0000512,-0002333,15:04:54.316593
0.289089,+0000019,-0000013,-0000014,+0000055,-0000092,+0004159,-0000806,+0000516,-0002338,15:04:54.316593
0.289787,+0000014,-0000015,-0000004,+0000070,-0000082,+0004158,-0000806,+0000516,-0002338,15:04:54.316593
0.290335,+0000014,-0000028,-0000008,+0000062,-0000111,+0004148,-0000806,+0000516,-0002338,15:04:54.316593
0.290530,+0000014,-0000028,-0000013,+0000068,-0000090,+0004155,-0000798,+0000510,-0002342,15:04:54.316593
0.290811,+0000028,-0000034,-0000013,+0000084,-0000085,+0004150,-0000798,+0000510,-0002342,15:04:54.316593
0.291085,+0000028,-0000034,+0000000,+0000067,-0000086,+0004151,-0000798,+0000510,-0002342,15:04:54.316593
0.291573,+0000030,-0000035,-0000013,+0000051,-0000090,+0004146,-0000798,+0000512,-0002331,15:04:54.316593
0.291809,+0000002,-0000026,-0000003,+0000052,-0000089,+0004146,-0000798,+0000512,-0002331,15:04:54.316593
0.292082,+0000025,-0000031,-0000011,+0000066,-0000087,+0004160,-0000798,+0000512,-0002331,15:04:54.316593
0.292416,+0000016,-0000020,-0000011,+0000088,-0000109,+0004144,-0000814,+0000498,-0002325,15:04:54.316593
0.292748,+0000008,-0000015,-0000004,+0000059,-0000098,+0004155,-0000814,+0000498,-0002325,15:04:54.316593
0.293081,+0000027,-0000037,-0000016,+0000045,-0000079,+0004170,-0000814,+0000498,-0002325,15:04:54.316593
0.293414,+0000023,-0000039,-0000015,+0000052,-0000078,+0004162,-0000806,+0000514,-0002333,15:04:54.316593
0.293748,+0000021,-0000026,-0000013,+0000068,-0000092,+0004153,-0000806,+0000514,-0002333,15:04:54.316593
0.294080,+0000017,-0000016,-0000005,+0000070,-0000097,+0004155,-0000806,+0000514,-0002333,15:04:54.316593
0.294563,+0000013,-0000023,-0000007,+0000056,-0000118,+0004154,-0000800,+0000502,-0002335,15:04:54.316593
0.294841,+0000012,-0000016,-0000002,+0000061,-0000098,+0004175,-0000800,+0000502,-0002335,15:04:54.316593
0.295084,+0000016,-0000013,-0000002,+0000059,-0000079,+0004166,-0000800,+0000502,-0002335,15:04:54.316593
0.295482,+0000013,-0000018,-0000016,+0000066,-0000078,+0004161,-0000800,+0000500,-0002314,15:04:54.316593
0.295751,+0000000,-0000011,-0000005,+0000072,-0000087,+0004161,-0000800,+0000500,-0002314,15:04:54.316593
0.296079,+0000027,-0000037,-0000005,+0000057,-0000088,+0004158,-0000800,+0000500,-0002314,15:04:54.316593
0.296411,+0000007,-0000007,-0000008,+0000063,-0000085,+0004145,-0000798,+0000496,-0002305,15:04:54.316593
0.296746,-0000008,-0000011,+0000000,+0000073,-0000091,+0004142,-0000798,+0000496,-0002305,15:04:54.316593
0.297077,+0000041,-0000046,-0000018,+0000069,-0000103,+0004150,-0000798,+0000496,-0002305,15:04:54.316593
0.297411,+0000027,-0000037,-0000005,+0000064,-0000100,+0004161,-0000804,+0000526,-0002313,15:04:54.316593
0.297744,+0000025,-0000028,-0000019,+0000062,-0000119,+0004139,-0000804,+0000526,-0002313,15:04:54.316593
0.298077,+0000000,+0000000,-0000013,+0000045,-0000084,+0004133,-0000804,+0000526,-0002313,15:04:54.316593
0.298409,+0000009,-0000011,-0000013,+0000064,-0000097,+0004167,-0000804,+0000504,-0002299,15:04:54.316593
0.298742,+0000005,-0000032,-0000005,+0000059,-0000106,+0004140,-0000804,+0000504,-0002299,15:04:54.316593
0.299078,+0000016,-0000021,-0000008,+0000053,-0000106,+0004158,-0000804,+0000504,-0002299,15:04:54.316593
0.299408,+0000017,-0000029,-0000005,+0000061,-0000108,+0004135,-0000794,+0000514,-0002310,15:04:54.316593
0.299741,+0000000,-0000012,-0000010,+0000058,-0000110,+0004161,-0000794,+0000514,-0002310,15:04:54.316593
0.300074,+0000016,-0000011,-0000010,+0000060,-0000100,+0004131,-0000794,+0000514,-0002310,15:04:54.316593
0.300407,+0000005,-0000024,-0000003,+0000060,-0000087,+0004153,-0000830,+0000506,-0002320,15:04:54.316593
0.300740,+0000019,-0000015,-0000010,+0000049,-0000087,+0004158,-0000830,+0000506,-0002320,15:04:54.317602
0.301073,+0000027,-0000048,-0000008,+0000058,-0000101,+0004155,-0000830,+0000506,-0002320,15:04:54.317602
0.301406,+0000027,-0000011,-0000002,+0000083,-0000075,+0004158,-0000810,+0000502,-0002315,15:04:54.317602
0.301739,-0000003,-0000019,-0000018,+0000066,-0000085,+0004145,-0000810,+0000502,-0002315,15:04:54.317602
0.302072,+0000021,-0000008,-0000008,+0000031,-0000086,+0004139,-0000810,+0000502,-0002315,15:04:54.317602
0.302405,+0000010,-0000020,-0000003,+0000055,-0000082,+0004145,-0000802,+0000498,-0002314,15:04:54.317602
0.302738,+0000028,-0000023,-0000018,+0000057,-0000078,+0004191,-0000802,+0000498,-0002314,15:04:54.317602
0.303074,+0000016,-0000035,-0000018,+0000060,-0000085,+0004167,-0000802,+0000498,-0002314,15:04:54.317602
0.303404,+0000000,-0000026,-0000008,+0000070,-0000080,+0004160,-0000806,+0000498,-0002341,15:04:54.317602
0.303737,+0000022,-0000021,-0000011,+0000090,-0000091,+0004169,-0000806,+0000498,-0002341,15:04:54.317602
0.304070,+0000013,-0000018,-0000007,+0000083,-0000096,+0004160,-0000806,+0000498,-0002341,15:04:54.317602
0.304403,+0000011,-0000015,-0000015,+0000065,-0000083,+0004154,-0000808,+0000528,-0002323,15:04:54.317602
0.304736,+0000014,-0000017,-0000018,+0000060,-0000086,+0004135,-0000808,+0000528,-0002323,15:04:54.317602
0.305069,+0000019,-0000029,-0000005,+0000076,-0000087,+0004164,-0000808,+0000528,-0002323,15:04:54.317602
0.305402,+0000021,-0000026,-0000016,+0000078,-0000102,+0004167,-0000814,+0000516,-0002336,15:04:54.317602
0.305735,+0000024,-0000019,-0000013,+0000069,-0000092,+0004156,-0000814,+0000516,-0002336,15:04:54.317602
0.306068,-0000005,+0000000,-0000005,+0000068,-0000091,+0004161,-0000814,+0000516,-0002336,15:04:54.317602
0.306401,+0000019,-0000026,-0000011,+0000052,-0000091,+0004132,-0000810,+0000512,-0002319,15:04:54.317602
0.306734,+0000033,-0000037,-0000016,+0000045,-0000091,+0004154,-0000810,+0000512,-0002319,15:04:54.317602
0.307067,+0000014,-0000026,-0000005,+0000049,-0000108,+0004164,-0000810,+0000512,-0002319,15:04:54.317602
0.307400,+0000014,-0000031,-0000014,+0000061,-0000096,+0004158,-0000806,+0000522,-0002320,15:04:54.317602
0.307733,+0000025,-0000026,-0000005,+0000061,-0000110,+0004170,-0000806,+0000522,-0002320,15:04:54.317602
0.308066,-0000006,+0000003,-0000001,+0000078,-0000093,+0004163,-0000806,+0000522,-0002320,15:04:54.317602
0.308399,+0000022,-0000007,-0000007,+0000081,-0000096,+0004160,-0000800,+0000512,-0002323,15:04:54.317602
0.308732,+0000014,-0000035,-0000018,+0000058,-0000091,+0004154,-0000800,+0000512,-0002323,15:04:54.317602
0.309065,+0000008,-0000047,-0000002,+0000067,-0000081,+0004143,-0000800,+0000512,-0002323,15:04:54.317602
0.309398,+0000033,-0000029,-0000021,+0000057,-0000080,+0004140,-0000798,+0000498,-0002322,15:04:54.317602
0.309731,+0000000,-0000011,-0000010,+0000057,-0000114,+0004136,-0000798,+0000498,-0002322,15:04:54.317602
0.310064,+0000020,-0000013,-0000013,+0000055,-0000092,+0004146,-0000798,+0000498,-0002322,15:04:54.318601
0.310397,+0000000,-0000024,+0000003,+0000060,-0000094,+0004160,-0000786,+0000514,-0002323,15:04:54.318601
0.310730,+0000017,-0000030,-0000004,+0000059,-0000102,+0004147,-0000786,+0000514,-0002323,15:04:54.318601
0.311063,+0000022,-0000043,-0000019,+0000063,-0000076,+0004147,-0000786,+0000514,-0002323,15:04:54.318601
0.311396,+0000011,-0000026,-0000003,+0000076,-0000077,+0004137,-0000816,+0000512,-0002343,15:04:54.318601
0.311729,+0000002,-0000012,-0000005,+0000068,-0000111,+0004147,-0000816,+0000512,-0002343,15:04:54.318601
0.312062,+0000000,-0000016,-0000007,+0000053,-0000084,+0004144,-0000816,+0000512,-0002343,15:04:54.319602
0.312395,+0000022,-0000021,-0000007,+0000044,-0000099,+0004151,-0000804,+0000504,-0002305,15:04:54.319602
0.312728,+0000019,-0000030,-0000005,+0000064,-0000084,+0004144,-0000804,+0000504,-0002305,15:04:54.319602
0.313061,+0000017,-0000050,-0000022,+0000072,-0000081,+0004147,-0000804,+0000504,-0002305,15:04:54.319602
0.313394,-0000003,-0000011,-0000005,+0000053,-0000071,+0004152,-0000800,+0000500,-0002336,15:04:54.323504
0.313727,+0000005,-0000013,-0000005,+0000071,-0000107,+0004148,-0000800,+0000500,-0002336,15:04:54.323504
0.314060,+0000010,-0000013,-0000007,+0000068,-0000075,+0004161,-0000800,+0000500,-0002336,15:04:54.323504
0.314393,+0000011,-0000036,-0000002,+0000079,-0000072,+0004159,-0000796,+0000508,-0002324,15:04:54.323504
0.314726,+0000033,-0000034,-0000010,+0000069,-0000105,+0004134,-0000796,+0000508,-0002324,15:04:54.323504
0.315059,+0000013,-0000011,-0000019,+0000067,-0000109,+0004155,-0000796,+0000508,-0002324,15:04:54.323504
0.315392,+0000003,-0000016,-0000007,+0000056,-0000121,+0004157,-0000808,+0000510,-0002306,15:04:54.323504
0.315725,+0000005,-0000008,-0000002,+0000051,-0000074,+0004169,-0000808,+0000510,-0002306,15:04:54.323504
0.316058,+0000005,-0000017,-0000011,+0000062,-0000071,+0004140,-0000808,+0000510,-0002306,15:04:54.323504
0.316391,+0000024,-0000029,-0000005,+0000059,-0000089,+0004141,-0000794,+0000514,-0002328,15:04:54.323504
0.316724,+0000024,-0000034,-0000018,+0000057,-0000095,+0004143,-0000794,+0000514,-0002328,15:04:54.323504
0.317057,+0000007,-0000015,+0000000,+0000067,-0000072,+0004129,-0000794,+0000514,-0002328,15:04:54.323504
0.317390,+0000009,-0000024,-0000007,+0000055,-0000095,+0004176,-0000804,+0000526,-0002318,15:04:54.323504
0.317723,+0000006,-0000007,-0000018,+0000060,-0000098,+0004160,-0000804,+0000526,-0002318,15:04:54.323504
0.318056,+0000017,-0000031,+0000001,+0000073,-0000105,+0004154,-0000804,+0000526,-0002318,15:04:54.323504
0.318389,+0000003,-0000028,-0000016,+0000059,-0000090,+0004144,-0000798,+0000498,-0002310,15:04:54.323504
0.318722,+0000031,-0000047,-0000016,+0000056,-0000078,+0004148,-0000798,+0000498,-0002310,15:04:54.323504
0.319055,-0000001,-0000018,+0000008,+0000066,-0000097,+0004132,-0000798,+0000498,-0002310,15:04:54.323504
0.319388,+0000029,-0000025,-0000016,+0000066,-0000090,+0004173,-0000796,+0000512,-0002304,15:04:54.323504
0.319721,-0000003,-0000021,-0000016,+0000066,-0000108,+0004162,-0000796,+0000512,-0002304,15:04:54.323504
0.320054,+0000014,-0000015,+0000000,+0000050,-0000095,+0004144,-0000796,+0000512,-0002304,15:04:54.323504
0.320387,+0000019,-0000036,-0000021,+0000076,-0000075,+0004153,-0000800,+0000504,-0002311,15:04:54.323504
0.320720,+0000024,-0000026,-0000007,+0000051,-0000098,+0004171,-0000800,+0000504,-0002311,15:04:54.323504
0.321053,+0000013,-0000019,-0000008,+0000055,-0000090,+0004170,-0000800,+0000504,-0002311,15:04:54.323504
0.321386,+0000002,-0000023,-0000006,+0000074,-0000087,+0004153,-0000812,+0000514,-0002324,15:04:54.323504
0.321719,+0000009,-0000018,-0000012,+0000048,-0000077,+0004149,-0000812,+0000514,-0002324,15:04:54.323504
0.322052,+0000008,-0000016,-0000013,+0000057,-0000107,+0004133,-0000812,+0000514,-0002324,15:04:54.323504
0.322385,+0000024,-0000039,+0000000,+0000043,-0000090,+0004144,-0000804,+0000504,-0002332,15:04:54.323504
0.322718,+0000021,-0000032,-0000011,+0000072,-0000076,+0004138,-0000804,+0000504,-0002332,15:04:54.323504
0.323051,+0000016,-0000016,+0000002,+0000067,-0000080,+0004162,-0000804,+0000504,-0002332,15:04:54.323504
0.323384,+0000011,-0000035,-0000019,+0000075,-0000092,+0004146,-0000812,+0000504,-0002336,15:04:54.323504
0.323717,+0000006,-0000001,+0000003,+0000064,-0000101,+0004152,-0000812,+0000504,-0002336,15:04:54.323504
0.324050,+0000009,-0000024,-0000007,+0000082,-0000116,+0004150,-0000812,+0000504,-0002336,15:04:54.323504
0.324383,+0000021,-0000028,+0000001,+0000063,-0000096,+0004135,-0000816,+0000508,-0002321,15:04:54.324512
0.324716,+0000031,-0000045,-0000021,+0000068,-0000103,+0004151,-0000816,+0000508,-0002321,15:04:54.324512
0.325049,+0000013,-0000026,-0000013,+0000040,-0000082,+0004148,-0000816,+0000508,-0002321,15:04:54.324512
0.325382,+0000005,-0000008,-0000015,+0000043,-0000083,+0004134,-0000804,+0000514,-0002301,15:04:54.324512
0.325715,+0000006,-0000008,+0000009,+0000054,-0000091,+0004147,-0000804,+0000514,-0002301,15:04:54.324512
0.326048,+0000017,-0000032,+0000001,+0000049,-0000099,+0004172,-0000804,+0000514,-0002301,15:04:54.324512
0.326381,+0000034,-0000034,-0000014,+0000076,-0000083,+0004146,-0000812,+0000526,-0002333,15:04:54.324512
0.326714,+0000027,-0000039,-0000005,+0000068,-0000105,+0004134,-0000812,+0000526,-0002333,15:04:54.324512
0.327047,+0000022,-0000023,-0000005,+0000055,-0000071,+0004157,-0000812,+0000526,-0002333,15:04:54.324512
0.327380,+0000005,-0000024,+0000000,+0000057,-0000093,+0004139,-0000818,+0000530,-0002350,15:04:54.324512
0.327713,+0000014,-0000011,-0000010,+0000049,-0000101,+0004165,-0000818,+0000530,-0002350,15:04:54.324512
0.328046,+0000005,-0000032,-0000008,+0000068,-0000087,+0004144,-0000818,+0000530,-0002350,15:04:54.324512
0.328379,+0000024,-0000035,-0000003,+0000064,-0000065,+0004144,-0000812,+0000492,-0002326,15:04:54.324512
0.328712,+0000022,-0000024,-0000016,+0000078,-0000088,+0004145,-0000812,+0000492,-0002326,15:04:54.324512
0.329045,+0000003,-0000002,-0000003,+0000062,-0000102,+0004170,-0000812,+0000492,-0002326,15:04:54.324512
0.329378,+0000017,-0000032,-0000014,+0000047,-0000064,+0004152,-0000818,+0000492,-0002319,15:04:54.324512
0.329711,+0000006,-0000011,-0000014,+0000052,-0000067,+0004170,-0000818,+0000492,-0002319,15:04:54.324512
0.330044,+0000014,-0000029,-0000002,+0000082,-0000099,+0004126,-0000818,+0000492,-0002319,15:04:54.324512
0.330377,+0000025,-0000034,-0000019,+0000064,-0000093,+0004138,-0000808,+0000518,-0002317,15:04:54.324512
0.330710,+0000022,-0000023,-0000002,+0000055,-0000088,+0004149,-0000808,+0000518,-0002317,15:04:54.324512
0.331043,+0000000,-0000027,-0000013,+0000058,-0000094,+0004125,-0000808,+0000518,-0002317,15:04:54.324512
0.331376,+0000010,-0000018,-0000008,+0000074,-0000073,+0004150,-0000814,+0000492,-0002325,15:04:54.324512
0.331709,+0000003,-0000022,-0000006,+0000054,-0000088,+0004153,-0000814,+0000492,-0002325,15:04:54.324512
0.332042,+0000033,-0000023,-0000002,+0000055,-0000087,+0004142,-0000814,+0000492,-0002325,15:04:54.327504
0.332375,+0000022,-0000032,-0000005,+0000073,-0000108,+0004162,-0000808,+0000512,-0002306,15:04:54.327504
0.332708,+0000018,-0000037,-0000029,+0000056,-0000115,+0004135,-0000808,+0000512,-0002306,15:04:54.327504
0.333041,-0000014,-0000020,+0000001,+0000044,-0000083,+0004146,-0000808,+0000512,-0002306,15:04:54.327504
0.333374,+0000014,-0000009,-0000015,+0000061,-0000069,+0004163,-0000806,+0000492,-0002320,15:04:54.327504
0.333707,+0000010,-0000012,-0000010,+0000049,-0000088,+0004143,-0000806,+0000492,-0002320,15:04:54.327504
0.334040,+0000030,-0000032,-0000010,+0000076,-0000089,+0004164,-0000806,+0000492,-0002320,15:04:54.327504
0.334373,+0000023,-0000034,-0000019,+0000041,-0000095,+0004152,-0000810,+0000508,-0002326,15:04:54.327504
0.334706,+0000003,-0000019,-0000003,+0000038,-0000101,+0004146,-0000810,+0000508,-0002326,15:04:54.327504
0.335039,+0000022,-0000026,-0000018,+0000057,-0000080,+0004158,-0000810,+0000508,-0002326,15:04:54.327504
0.335372,-0000001,-0000002,-0000005,+0000050,-0000081,+0004157,-0000810,+0000510,-0002343,15:04:54.327504
0.335705,+0000010,-0000007,+0000011,+0000067,-0000114,+0004152,-0000810,+0000510,-0002343,15:04:54.327504
0.336038,+0000017,-0000030,-0000010,+0000057,-0000102,+0004148,-0000810,+0000510,-0002343,15:04:54.327504
0.336371,+0000019,-0000035,-0000013,+0000070,-0000092,+0004152,-0000792,+0000506,-0002338,15:04:54.327504
0.336704,+0000016,-0000032,-0000015,+0000051,-0000077,+0004152,-0000792,+0000506,-0002338,15:04:54.327504
0.337037,+0000009,-0000018,+0000009,+0000066,-0000104,+0004154,-0000792,+0000506,-0002338,15:04:54.327504
0.337370,+0000003,-0000016,-0000006,+0000054,-0000103,+0004171,-0000808,+0000518,-0002317,15:04:54.327504
0.337703,+0000002,-0000021,-0000008,+0000060,-0000098,+0004138,-0000808,+0000518,-0002317,15:04:54.327504
0.338036,+0000030,-0000031,-0000005,+0000055,-0000106,+0004151,-0000808,+0000518,-0002317,15:04:54.327504
0.338369,+0000019,-0000040,-0000010,+0000051,-0000094,+0004158,-0000818,+0000522,-0002285,15:04:54.369334
0.338705,+0000016,-0000029,-0000016,+0000066,-0000116,+0004148,-0000818,+0000522,-0002285,15:04:54.369334
0.339036,-0000005,+0000004,-0000004,+0000065,-0000100,+0004156,-0000818,+0000522,-0002285,15:04:54.369334
0.339374,+0000011,-0000028,-0000011,+0000045,-0000086,+0004156,-0000826,+0000518,-0002300,15:04:54.369334
0.339891,+0000005,-0000024,-0000008,+0000054,-0000099,+0004158,-0000826,+0000518,-0002300,15:04:54.369334
0.340075,+0000005,-0000024,-0000008,+0000054,-0000099,+0004149,-0000826,+0000518,-0002300,15:04:54.369334
0.340371,+0000000,-0000019,+0000003,+0000058,-0000090,+0004173,-0000796,+0000514,-0002313,15:04:54.369334
0.340812,+0000022,-0000032,+0000000,+0000056,-0000098,+0004149,-0000796,+0000514,-0002313,15:04:54.369334
0.341036,+0000019,-0000028,+0000001,+0000061,-0000076,+0004161,-0000796,+0000514,-0002313,15:04:54.369334
0.341366,+0000008,-0000002,+0000005,+0000064,-0000097,+0004161,-0000810,+0000260,-0002352,15:04:54.369334
0.341708,+0000005,-0000045,-0000027,+0000062,-0000078,+0004131,-0000810,+0000260,-0002352,15:04:54.369334
0.342032,+0000028,-0000042,+0000009,+0000081,-0000079,+0004161,-0000810,+0000260,-0002352,15:04:54.369334
0.342476,+0000014,-0000021,-0000002,+0000059,-0000083,+0004165,-0000808,+0000524,-0002315,15:04:54.369334
0.342706,+0000008,-0000019,-0000012,+0000075,-0000082,+0004139,-0000808,+0000524,-0002315,15:04:54.369334
0.343031,+0000025,-0000039,-0000008,+0000065,-0000075,+0004171,-0000808,+0000524,-0002315,15:04:54.369334
0.343365,+0000024,-0000022,-0000013,+0000063,-0000084,+0004152,-0000790,+0000508,-0002335,15:04:54.369334
0.343697,+0000002,-0000021,+0000003,+0000052,-0000084,+0004151,-0000790,+0000508,-0002335,15:04:54.369334
0.344030,+0000028,-0000035,+0000003,+0000059,-0000101,+0004145,-0000790,+0000508,-0002335,15:04:54.369334
0.344363,+0000014,-0000025,-0000016,+0000066,-0000082,+0004154,-0000816,+0000514,-0002299,15:04:54.369334
0.344696,+0000000,-0000024,-0000013,+0000056,-0000093,+0004169,-0000816,+0000514,-0002299,15:04:54.369334
0.345029,+0000022,-0000015,-0000005,+0000065,-0000084,+0004161,-0000816,+0000514,-0002299,15:04:54.369334
0.345362,+0000002,-0000003,-0000004,+0000053,-0000077,+0004153,-0000818,+0000510,-0002297,15:04:54.369334
0.345695,+0000018,-0000026,-0000021,+0000070,-0000093,+0004157,-0000818,+0000510,-0002297,15:04:54.369334
0.346028,+0000013,-0000038,-0000008,+0000059,-0000116,+0004153,-0000818,+0000510,-0002297,15:04:54.369334
0.346361,+0000021,-0000021,-0000019,+0000070,-0000082,+0004139,-0000808,+0000526,-0002329,15:04:54.369334
0.346694,+0000008,-0000021,-0000007,+0000052,-0000089,+0004146,-0000808,+0000526,-0002329,15:04:54.369334
0.347027,+0000019,-0000023,-0000014,+0000092,-0000096,+0004127,-0000808,+0000526,-0002329,15:04:54.369334
0.347360,+0000000,-0000021,-0000002,+0000071,-0000095,+0004147,-0000816,+0000508,-0002324,15:04:54.369334
0.347693,+0000005,-0000022,-0000007,+0000056,-0000087,+0004169,-0000816,+0000508,-0002324,15:04:54.369334
0.348026,+0000024,-0000039,-0000011,+0000058,-0000078,+0004161,-0000816,+0000508,-0002324,15:04:54.369334
0.348359,+0000003,-0000021,-0000001,+0000045,-0000090,+0004163,-0000790,+0000512,-0002365,15:04:54.369334
0.348692,+0000020,-0000019,-0000019,+0000082,-0000098,+0004169,-0000790,+0000512,-0002365,15:04:54.369334
0.349029,+0000003,-0000005,+0000000,+0000062,-0000080,+0004175,-0000790,+0000512,-0002365,15:04:54.369334
0.349358,+0000017,-0000024,-0000015,+0000052,-0000072,+0004161,-0000824,+0000498,-0002330,15:04:54.369334
0.349691,+0000023,-0000034,-0000005,+0000039,-0000090,+0004168,-0000824,+0000498,-0002330,15:04:54.369334
0.350024,+0000017,-0000029,-0000018,+0000054,-0000088,+0004147,-0000824,+0000498,-0002330,15:04:54.369334
0.350357,+0000018,-0000030,-0000008,+0000048,-0000105,+0004181,-0000804,+0000502,-0002336,15:04:54.369334
0.350690,+0000003,-0000013,-0000008,+0000055,-0000085,+0004151,-0000804,+0000502,-0002336,15:04:54.369334
0.351023,-0000013,+0000004,-0000004,+0000065,-0000086,+0004139,-0000804,+0000502,-0002336,15:04:54.369334
0.351356,+0000013,-0000031,-0000010,+0000047,-0000076,+0004153,-0000814,+0000512,-0002336,15:04:54.369334
0.351689,+0000014,-0000027,-0000013,+0000072,-0000102,+0004152,-0000814,+0000512,-0002336,15:04:54.369334
0.352022,+0000038,-0000047,-0000016,+0000058,-0000106,+0004135,-0000814,+0000512,-0002336,15:04:54.369334
0.352355,+0000020,-0000029,-0000016,+0000051,-0000060,+0004154,-0000806,+0000506,-0002321,15:04:54.369334
0.352688,+0000003,+0000005,-0000008,+0000054,-0000070,+0004146,-0000806,+0000506,-0002321,15:04:54.369334
0.353021,-0000002,-0000013,+0000003,+0000063,-0000083,+0004153,-0000806,+0000506,-0002321,15:04:54.369334
0.353354,+0000014,-0000027,-0000019,+0000050,-0000098,+0004132,-0000788,+0000522,-0002336,15:04:54.369334
0.353687,+0000024,-0000037,-0000006,+0000059,-0000092,+0004166,-0000788,+0000522,-0002336,15:04:54.369334
0.354020,+0000023,-0000043,-0000011,+0000039,-0000086,+0004147,-0000788,+0000522,-0002336,15:04:54.369334
0.354353,+0000014,-0000005,-0000016,+0000067,-0000083,+0004151,-0000792,+0000524,-0002345,15:04:54.369334
0.354686,-0000003,-0000010,-0000003,+0000057,-0000099,+0004166,-0000792,+0000524,-0002345,15:04:54.369334
0.355019,+0000017,-0000013,-0000013,+0000057,-0000092,+0004160,-0000792,+0000524,-0002345,15:04:54.369334
0.355352,+0000006,-0000024,+0000003,+0000060,-0000089,+0004140,-0000796,+0000510,-0002318,15:04:54.369334
0.355685,+0000025,-0000031,-0000008,+0000068,-0000071,+0004156,-0000796,+0000510,-0002318,15:04:54.369334
0.356018,+0000025,-0000012,+0000001,+0000084,-0000096,+0004163,-0000796,+0000510,-0002318,15:04:54.369334
0.356351,+0000019,-0000024,-0000003,+0000070,-0000052,+0004144,-0000780,+0000514,-0002336,15:04:54.369334
0.356684,+0000008,-0000015,-0000019,+0000075,-0000086,+0004173,-0000780,+0000514,-0002336,15:04:54.369334
0.357017,-0000001,-0000013,+0000001,+0000067,-0000080,+0004143,-0000780,+0000514,-0002336,15:04:54.369334
0.357350,+0000021,-0000043,-0000016,+0000072,-0000077,+0004145,-0000792,+0000512,-0002314,15:04:54.369334
0.357683,+0000024,-0000021,-0000010,+0000052,-0000091,+0004157,-0000792,+0000512,-0002314,15:04:54.369334
0.358018,+0000027,-0000045,-0000021,+0000075,-0000096,+0004143,-0000792,+0000512,-0002314,15:04:54.369334
0.358349,+0000003,-0000017,-0000008,+0000054,-0000093,+0004154,-0000786,+0000494,-0002336,15:04:54.369334
0.358682,+0000002,-0000003,-0000002,+0000064,-0000076,+0004145,-0000786,+0000494,-0002336,15:04:54.369334
0.359015,+0000014,-0000022,-0000003,+0000057,-0000089,+0004157,-0000786,+0000494,-0002336,15:04:54.369334
0.359383,+0000022,-0000025,+0000000,+0000065,-0000089,+0004148,-0000788,+0000504,-0002299,15:04:54.369334
0.359681,+0000027,-0000039,-0000023,+0000062,-0000093,+0004138,-0000788,+0000504,-0002299,15:04:54.369334
0.360014,+0000017,-0000029,+0000001,+0000060,-0000123,+0004138,-0000788,+0000504,-0002299,15:04:54.369334
0.360347,+0000013,-0000013,-0000018,+0000045,-0000097,+0004148,-0000794,+0000516,-0002325,15:04:54.369334
0.360680,+0000014,-0000016,-0000005,+0000048,-0000103,+0004137,-0000794,+0000516,-0002325,15:04:54.369334
0.361013,-0000002,-0000008,-0000002,+0000073,-0000080,+0004154,-0000794,+0000516,-0002325,15:04:54.369334
0.361346,+0000005,-0000031,-0000001,+0000051,-0000088,+0004156,-0000798,+0000516,-0002331,15:04:54.369334
0.361679,+0000027,-0000021,-0000007,+0000052,-0000095,+0004166,-0000798,+0000516,-0002331,15:04:54.369334
0.362012,+0000028,-0000047,-0000019,+0000059,-0000089,+0004149,-0000798,+0000516,-0002331,15:04:54.369334
0.362345,-0000006,+0000001,-0000008,+0000068,-0000103,+0004153,-0000784,+0000516,-0002317,15:04:54.369334
0.362678,+0000020,-0000021,+0000000,+0000062,-0000090,+0004140,-0000784,+0000516,-0002317,15:04:54.369334
0.363011,-0000001,-0000015,+0000009,+0000067,-0000072,+0004151,-0000784,+0000516,-0002317,15:04:54.369334
0.363344,+0000031,-0000042,-0000021,+0000055,-0000082,+0004145,-0000800,+0000520,-0002319,15:04:54.369334
0.363677,+0000013,-0000032,-0000002,+0000059,-0000092,+0004151,-0000800,+0000520,-0002319,15:04:54.369334
0.364010,+0000019,-0000026,-0000016,+0000058,-0000080,+0004151,-0000800,+0000520,-0002319,15:04:54.369334
0.364343,+0000010,-0000016,-0000007,+0000055,-0000109,+0004149,-0000792,+0000518,-0002343,15:04:54.374333
0.364676,+0000013,-0000007,-0000016,+0000055,-0000110,+0004155,-0000792,+0000518,-0002343,15:04:54.374333
0.365009,+0000005,-0000021,+0000006,+0000050,-0000106,+0004150,-0000792,+0000518,-0002343,15:04:54.374333
0.365342,+0000030,-0000037,-0000015,+0000057,-0000083,+0004158,-0000802,+0000508,-0002338,15:04:54.374333
0.365675,+0000009,-0000027,-0000008,+0000058,-0000085,+0004170,-0000802,+0000508,-0002338,15:04:54.374333
0.366008,+0000022,-0000037,-0000020,+0000054,-0000084,+0004156,-0000802,+0000508,-0002338,15:04:54.374333
0.366341,-0000009,+0000003,-0000001,+0000053,-0000092,+0004148,-0000800,+0000506,-0002328,15:04:54.374333
0.366674,+0000010,-0000016,-0000008,+0000052,-0000100,+0004160,-0000800,+0000506,-0002328,15:04:54.374333
0.367007,+0000016,-0000026,-0000010,+0000073,-0000083,+0004171,-0000800,+0000506,-0002328,15:04:54.374333
0.367340,+0000014,-0000029,+0000001,+0000076,-0000081,+0004143,-0000806,+0000500,-0002349,15:04:54.374333
0.367674,+0000030,-0000044,-0000007,+0000072,-0000074,+0004146,-0000806,+0000500,-0002349,15:04:54.374333
0.368006,+0000008,-0000010,-0000008,+0000048,-0000107,+0004156,-0000806,+0000500,-0002349,15:04:54.374333
0.368339,+0000014,-0000015,-0000010,+0000053,-0000109,+0004162,-0000798,+0000504,-0002340,15:04:54.374333
0.368672,+0000017,-0000035,-0000003,+0000051,-0000086,+0004139,-0000798,+0000504,-0002340,15:04:54.374333
0.369005,+0000011,-0000022,-0000004,+0000058,-0000098,+0004158,-0000798,+0000504,-0002340,15:04:54.374333
0.369338,+0000039,-0000046,-0000016,+0000049,-0000120,+0004155,-0000796,+0000520,-0002332,15:04:54.374333
0.369671,+0000014,-0000015,-0000016,+0000066,-0000086,+0004150,-0000796,+0000520,-0002332,15:04:54.374333
0.370004,+0000009,-0000010,-0000011,+0000053,-0000090,+0004154,-0000796,+0000520,-0002332,15:04:54.374333
0.370337,+0000008,-0000019,-0000004,+0000048,-0000089,+0004143,-0000800,+0000498,-0002347,15:04:54.374333
0.370670,+0000010,-0000008,-0000013,+0000071,-0000104,+0004135,-0000800,+0000498,-0002347,15:04:54.374333
0.371003,+0000016,-0000024,-0000008,+0000058,-0000090,+0004132,-0000800,+0000498,-0002347,15:04:54.374333
0.371336,+0000017,-0000036,-0000014,+0000063,-0000099,+0004146,-0000796,+0000522,-0002338,15:04:54.374333
0.371669,-0000003,-0000021,-0000005,+0000062,-0000107,+0004179,-0000796,+0000522,-0002338,15:04:54.374333
0.372002,+0000014,-0000032,-0000021,+0000050,-0000099,+0004162,-0000796,+0000522,-0002338,15:04:54.374333
0.372335,-0000011,+0000001,+0000012,+0000058,-0000091,+0004183,-0000796,+0000508,-0002333,15:04:54.374333
0.372672,+0000016,-0000026,-0000012,+0000070,-0000093,+0004160,-0000796,+0000508,-0002333,15:04:54.374333
0.373001,+0000004,-0000034,-0000019,+0000069,-0000086,+0004142,-0000796,+0000508,-0002333,15:04:54.374333
0.373334,+0000022,-0000046,-0000008,+0000061,-0000103,+0004148,-0000814,+0000494,-0002327,15:04:54.374333
0.373667,+0000016,-0000023,-0000016,+0000049,-0000101,+0004161,-0000814,+0000494,-0002327,15:04:54.374333
0.374199,+0000003,-0000023,-0000010,+0000072,-0000090,+0004135,-0000814,+0000494,-0002327,15:04:54.374333
0.374374,+0000003,-0000023,-0000007,+0000082,-0000104,+0004171,-0000816,+0000504,-0002342,15:04:54.374333
0.374668,+0000005,-0000014,-0000019,+0000072,-0000082,+0004145,-0000816,+0000504,-0002342,15:04:54.374333
0.375002,+0000024,-0000026,-0000004,+0000064,-0000087,+0004144,-0000816,+0000504,-0002342,15:04:54.374333
0.375332,+0000030,-0000034,-0000018,+0000064,-0000072,+0004147,-0000808,+0000506,-0002350,15:04:54.374333
0.375665,+0000016,-0000032,-0000002,+0000047,-0000085,+0004124,-0000808,+0000506,-0002350,15:04:54.374333
0.375998,+0000000,-0000013,-0000016,+0000050,-0000091,+0004147,-0000808,+0000506,-0002350,15:04:54.374333
