===BEGIN_METADATA===
"This CSV contains gyroscope, accelerometer, and magnetometer data synced with the test named below."
Test Name: 2026-07-07_150106_01,yyyy-mm-dd_hhmmss_{probe#/nano_id}
Calibrations: (not implemented yet)
===END_METADATA===
===BEGIN_DATA===
Time (sec),Gyro X,Gyro Y,Gyro Z,Accel X,Accel Y,Accel Z,Mag X,Mag Y,Mag Z,Processed_Time
0.000282,+0000010,-0000015,-0000008,+0000014,-0000077,+0004152,-0000624,+0000290,-0002554,15:01:07.186445
0.000615,+0000002,-0000008,+0000005,+0000021,-0000090,+0004164,-0000514,+0000466,-0002347,15:01:07.187451
0.000947,+0000018,-0000036,-0000007,+0000008,-0000068,+0004154,-0000514,+0000466,-0002347,15:01:07.187451
0.001280,+0000014,-0000031,-0000007,+0000021,-0000065,+0004149,-0000514,+0000466,-0002347,15:01:07.187451
0.001613,+0000018,-0000027,-0000011,+0000023,-0000074,+0004162,-0000746,+0000454,-0002334,15:01:07.187451
0.001946,+0000005,-0000011,-0000005,+0000017,-0000073,+0004161,-0000746,+0000454,-0002334,15:01:07.187451
0.002279,+0000008,-0000012,-0000012,+0000025,-0000076,+0004147,-0000746,+0000454,-0002334,15:01:07.187451
0.002612,+0000019,-0000018,+0000003,+0000026,-0000058,+0004167,-0000766,+0000468,-0002350,15:01:07.187451
0.002945,+0000005,-0000029,-0000008,+0000035,-0000082,+0004174,-0000766,+0000468,-0002350,15:01:07.187451
0.003278,+0000033,-0000037,-0000013,+0000034,-0000079,+0004152,-0000766,+0000468,-0002350,15:01:07.187451
0.003611,+0000003,-0000021,-0000018,+0000033,-0000069,+0004140,-0000754,+0000480,-0002332,15:01:07.187451
0.003944,+0000019,-0000006,-0000002,+0000021,-0000074,+0004158,-0000754,+0000480,-0002332,15:01:07.187451
0.004277,+0000004,-0000004,+0000006,+0000023,-0000055,+0004156,-0000754,+0000480,-0002332,15:01:07.187451
0.004610,+0000013,-0000027,-0000004,+0000025,-0000084,+0004158,-0000776,+0000474,-0002326,15:01:07.187451
0.004943,+0000022,-0000043,-0000010,+0000049,-0000071,+0004163,-0000776,+0000474,-0002326,15:01:07.187451
0.005276,+0000021,-0000031,-0000026,+0000033,-0000078,+0004157,-0000776,+0000474,-0002326,15:01:07.187451
0.005609,+0000006,-0000027,-0000002,+0000036,-0000081,+0004156,-0000746,+0000474,-0002358,15:01:07.187451
0.005942,+0000008,+0000001,-0000004,+0000031,-0000082,+0004174,-0000746,+0000474,-0002358,15:01:07.187451
0.006275,+0000002,-0000010,-0000008,+0000011,-0000100,+0004146,-0000746,+0000474,-0002358,15:01:07.187451
0.006608,+0000021,-0000032,-0000005,+0000019,-0000081,+0004140,-0000748,+0000464,-0002316,15:01:07.187451
0.006941,+0000033,-0000032,-0000015,+0000021,-0000077,+0004150,-0000748,+0000464,-0002316,15:01:07.187451
0.007274,+0000021,-0000036,-0000015,+0000048,-0000086,+0004167,-0000748,+0000464,-0002316,15:01:07.187451
0.007607,-0000005,-0000008,-0000011,+0000016,-0000092,+0004138,-0000748,+0000478,-0002333,15:01:07.187451
0.007940,+0000017,-0000020,-0000003,+0000016,-0000100,+0004152,-0000748,+0000478,-0002333,15:01:07.187451
0.008273,+0000014,-0000023,-0000004,+0000009,-0000110,+0004140,-0000748,+0000478,-0002333,15:01:07.187451
0.008606,+0000019,-0000037,-0000013,+0000004,-0000076,+0004142,-0000754,+0000448,-0002336,15:01:07.187451
0.008939,+0000024,-0000035,-0000010,+0000033,-0000068,+0004131,-0000754,+0000448,-0002336,15:01:07.187451
0.009275,+0000016,-0000011,-0000011,+0000045,-0000090,+0004150,-0000754,+0000448,-0002336,15:01:07.230438
0.009607,+0000008,-0000015,-0000012,+0000026,-0000077,+0004146,-0000750,+0000468,-0002339,15:01:07.230438
0.009940,+0000006,-0000011,-0000003,+0000028,-0000087,+0004145,-0000750,+0000468,-0002339,15:01:07.231440
0.010529,+0000032,-0000040,-0000008,+0000022,-0000082,+0004147,-0000750,+0000468,-0002339,15:01:07.231440
0.010747,+0000011,-0000012,-0000010,+0000024,-0000066,+0004161,-0000740,+0000472,-0002341,15:01:07.231440
0.011000,+0000024,-0000016,-0000010,+0000020,-0000073,+0004147,-0000740,+0000472,-0002341,15:01:07.231440
0.011270,+0000013,-0000029,-0000008,+0000010,-0000075,+0004142,-0000740,+0000472,-0002341,15:01:07.231440
0.011603,+0000011,-0000021,+0000001,+0000020,-0000096,+0004156,-0000756,+0000450,-0002333,15:01:07.231440
0.011936,+0000003,-0000016,-0000016,+0000011,-0000094,+0004157,-0000756,+0000450,-0002333,15:01:07.231440
0.012269,+0000007,-0000002,-0000002,+0000032,-0000087,+0004156,-0000756,+0000450,-0002333,15:01:07.231440
0.012602,+0000025,-0000038,-0000007,+0000043,-0000084,+0004163,-0000754,+0000482,-0002337,15:01:07.231440
0.012935,+0000022,-0000036,-0000010,+0000032,-0000085,+0004149,-0000754,+0000482,-0002337,15:01:07.231440
0.013269,+0000025,-0000019,-0000010,+0000026,-0000086,+0004162,-0000754,+0000482,-0002337,15:01:07.231440
0.013601,+0000013,-0000016,-0000007,-0000002,-0000080,+0004143,-0000766,+0000468,-0002352,15:01:07.231440
0.013936,-0000001,-0000019,-0000014,+0000034,-0000085,+0004154,-0000766,+0000468,-0002352,15:01:07.231440
0.014267,+0000013,-0000006,-0000005,+0000018,-0000090,+0004148,-0000766,+0000468,-0002352,15:01:07.231440
0.014601,+0000022,-0000028,-0000016,+0000025,-0000079,+0004149,-0000758,+0000464,-0002332,15:01:07.231440
0.014933,+0000014,-0000039,+0000000,+0000011,-0000084,+0004161,-0000758,+0000464,-0002332,15:01:07.231440
0.015266,+0000018,-0000024,-0000014,+0000028,-0000087,+0004150,-0000758,+0000464,-0002332,15:01:07.231440
0.015599,-0000006,-0000005,-0000002,+0000016,-0000080,+0004163,-0000770,+0000470,-0002314,15:01:07.231440
0.015932,+0000018,-0000018,-0000014,+0000032,-0000081,+0004150,-0000770,+0000470,-0002314,15:01:07.231440
0.016265,+0000011,-0000026,-0000007,+0000029,-0000095,+0004130,-0000770,+0000470,-0002314,15:01:07.231440
0.016598,+0000035,-0000029,-0000013,+0000009,-0000086,+0004154,-0000756,+0000484,-0002319,15:01:07.231440
0.016931,+0000014,-0000034,-0000019,+0000020,-0000083,+0004161,-0000756,+0000484,-0002319,15:01:07.231440
0.017264,+0000019,-0000016,-0000002,+0000010,-0000077,+0004176,-0000756,+0000484,-0002319,15:01:07.231440
0.017597,+0000011,-0000015,-0000018,+0000028,-0000069,+0004153,-0000764,+0000458,-0002338,15:01:07.231440
0.017930,+0000002,-0000015,+0000000,+0000013,-0000076,+0004150,-0000764,+0000458,-0002338,15:01:07.231440
0.018263,+0000019,-0000021,-0000006,+0000016,-0000097,+0004156,-0000764,+0000458,-0002338,15:01:07.231440
0.018596,+0000024,-0000034,-0000005,+0000031,-0000078,+0004147,-0000756,+0000474,-0002342,15:01:07.231440
0.018929,+0000013,-0000031,-0000010,+0000012,-0000080,+0004150,-0000756,+0000474,-0002342,15:01:07.231440
0.019262,+0000005,-0000031,-0000016,+0000030,-0000103,+0004133,-0000756,+0000474,-0002342,15:01:07.231440
0.019595,-0000001,-0000007,+0000000,+0000027,-0000087,+0004132,-0000744,+0000468,-0002339,15:01:07.231440
0.019928,+0000011,-0000005,-0000013,+0000042,-0000084,+0004136,-0000744,+0000468,-0002339,15:01:07.231440
0.020261,+0000030,-0000056,-0000010,+0000018,-0000091,+0004154,-0000744,+0000468,-0002339,15:01:07.231440
0.020594,+0000010,-0000021,-0000002,+0000032,-0000076,+0004163,-0000754,+0000460,-0002347,15:01:07.231440
0.020927,+0000025,-0000045,-0000024,+0000019,-0000089,+0004158,-0000754,+0000460,-0002347,15:01:07.231440
0.021260,+0000006,-0000026,-0000007,+0000000,-0000103,+0004164,-0000754,+0000460,-0002347,15:01:07.231440
0.021593,+0000013,-0000003,+0000003,+0000025,-0000084,+0004144,-0000748,+0000472,-0002337,15:01:07.231440
0.021926,+0000006,-0000027,-0000015,+0000014,-0000078,+0004164,-0000748,+0000472,-0002337,15:01:07.231440
0.022259,+0000009,-0000036,-0000002,+0000020,-0000067,+0004142,-0000748,+0000472,-0002337,15:01:07.231440
0.022592,+0000043,-0000049,-0000021,+0000015,-0000069,+0004144,-0000756,+0000492,-0002358,15:01:07.231440
0.022925,+0000011,-0000023,-0000005,+0000010,-0000070,+0004139,-0000756,+0000492,-0002358,15:01:07.231440
0.023258,+0000007,-0000018,-0000013,+0000022,-0000068,+0004155,-0000756,+0000492,-0002358,15:01:07.231440
0.023591,+0000006,-0000016,-0000004,+0000025,-0000093,+0004162,-0000756,+0000472,-0002335,15:01:07.231440
0.023924,+0000009,-0000024,-0000008,+0000026,-0000085,+0004155,-0000756,+0000472,-0002335,15:01:07.231440
0.024257,+0000024,-0000041,-0000014,+0000019,-0000072,+0004156,-0000756,+0000472,-0002335,15:01:07.231440
0.024590,+0000025,-0000027,-0000011,+0000040,-0000085,+0004157,-0000766,+0000478,-0002317,15:01:07.231440
0.024923,+0000003,-0000021,-0000010,+0000018,-0000080,+0004159,-0000766,+0000478,-0002317,15:01:07.231440
0.025256,+0000006,-0000018,-0000003,+0000009,-0000092,+0004150,-0000766,+0000478,-0002317,15:01:07.231440
0.025589,+0000002,+0000000,-0000013,+0000012,-0000101,+0004151,-0000758,+0000468,-0002328,15:01:07.231440
0.025922,+0000027,-0000039,-0000013,+0000021,-0000067,+0004126,-0000758,+0000468,-0002328,15:01:07.231440
0.026255,+0000000,-0000029,-0000017,+0000027,-0000078,+0004136,-0000758,+0000468,-0002328,15:01:07.231440
0.026588,+0000027,-0000037,-0000014,+0000035,-0000076,+0004136,-0000750,+0000476,-0002329,15:01:07.231440
0.026921,+0000018,-0000028,-0000010,+0000022,-0000083,+0004154,-0000750,+0000476,-0002329,15:01:07.231440
0.027254,+0000000,-0000012,-0000003,+0000024,-0000101,+0004155,-0000750,+0000476,-0002329,15:01:07.231440
0.027587,+0000005,-0000008,-0000004,+0000016,-0000099,+0004148,-0000746,+0000462,-0002313,15:01:07.231440
0.027920,+0000024,-0000027,+0000001,+0000011,-0000085,+0004146,-0000746,+0000462,-0002313,15:01:07.231440
0.028253,+0000022,-0000043,-0000008,+0000011,-0000090,+0004149,-0000746,+0000462,-0002313,15:01:07.231440
0.028586,+0000008,-0000029,-0000010,+0000025,-0000086,+0004145,-0000760,+0000474,-0002315,15:01:07.231440
0.028919,+0000023,-0000021,-0000007,+0000043,-0000094,+0004140,-0000760,+0000474,-0002315,15:01:07.231440
0.029252,+0000002,-0000016,-0000011,+0000005,-0000074,+0004141,-0000760,+0000474,-0002315,15:01:07.231440
0.029585,+0000016,-0000021,-0000016,+0000020,-0000077,+0004160,-0000762,+0000480,-0002333,15:01:07.231440
0.029918,+0000017,-0000011,-0000005,+0000014,-0000078,+0004159,-0000762,+0000480,-0002333,15:01:07.231440
0.030251,+0000027,-0000048,-0000021,+0000024,-0000088,+0004142,-0000762,+0000480,-0002333,15:01:07.231440
0.030584,+0000022,-0000022,+0000009,+0000001,-0000088,+0004141,-0000760,+0000480,-0002330,15:01:07.231440
0.030917,+0000002,-0000026,-0000016,+0000005,-0000106,+0004154,-0000760,+0000480,-0002330,15:01:07.231440
0.031250,+0000016,-0000015,-0000002,+0000012,-0000080,+0004137,-0000760,+0000480,-0002330,15:01:07.231440
0.031583,-0000007,-0000005,-0000005,+0000006,-0000084,+0004145,-0000768,+0000484,-0002351,15:01:07.231440
0.031916,+0000025,-0000037,-0000005,+0000015,-0000073,+0004158,-0000768,+0000484,-0002351,15:01:07.231440
0.032249,+0000022,-0000031,-0000008,+0000020,-0000076,+0004129,-0000768,+0000484,-0002351,15:01:07.231440
0.032582,+0000018,-0000031,-0000007,+0000024,-0000069,+0004143,-0000774,+0000466,-0002338,15:01:07.231440
0.032915,+0000006,-0000026,-0000018,+0000001,-0000088,+0004154,-0000774,+0000466,-0002338,15:01:07.231440
0.033248,-0000003,+0000004,+0000005,+0000011,-0000071,+0004157,-0000774,+0000466,-0002338,15:01:07.231440
0.033581,+0000016,-0000018,-0000013,+0000029,-0000057,+0004166,-0000780,+0000470,-0002349,15:01:07.231440
0.033914,+0000014,-0000039,-0000004,+0000026,-0000104,+0004159,-0000780,+0000470,-0002349,15:01:07.231440
0.034247,+0000016,-0000031,-0000008,+0000021,-0000086,+0004158,-0000780,+0000470,-0002349,15:01:07.231440
0.034580,+0000033,-0000034,-0000021,+0000028,-0000100,+0004163,-0000766,+0000476,-0002322,15:01:07.231440
0.034913,+0000024,+0000001,-0000010,+0000018,-0000097,+0004165,-0000766,+0000476,-0002322,15:01:07.231440
0.035246,-0000004,-0000012,-0000005,+0000011,-0000090,+0004168,-0000766,+0000476,-0002322,15:01:07.231440
0.035579,+0000022,-0000026,-0000003,+0000002,-0000089,+0004149,-0000754,+0000476,-0002356,15:01:07.231440
0.035912,+0000018,-0000035,-0000008,+0000011,-0000081,+0004161,-0000754,+0000476,-0002356,15:01:07.231440
0.036245,+0000021,-0000036,-0000007,+0000021,-0000079,+0004153,-0000754,+0000476,-0002356,15:01:07.231440
0.036578,+0000020,-0000018,-0000002,+0000013,-0000080,+0004141,-0000764,+0000462,-0002354,15:01:07.231440
0.036911,+0000000,-0000013,-0000011,+0000020,-0000073,+0004150,-0000764,+0000462,-0002354,15:01:07.232773
0.037244,+0000011,-0000018,-0000003,+0000012,-0000083,+0004141,-0000764,+0000462,-0002354,15:01:07.232773
0.037577,+0000018,-0000022,-0000011,+0000017,-0000084,+0004171,-0000750,+0000460,-0002320,15:01:07.232773
0.037910,+0000010,-0000032,+0000003,+0000028,-0000091,+0004155,-0000750,+0000460,-0002320,15:01:07.232773
0.038243,+0000036,-0000022,-0000013,+0000019,-0000090,+0004156,-0000750,+0000460,-0002320,15:01:07.232773
0.038576,+0000016,-0000034,-0000003,+0000014,-0000096,+0004155,-0000756,+0000468,-0002341,15:01:07.232773
0.038909,+0000003,-0000008,-0000005,+0000039,-0000098,+0004141,-0000756,+0000468,-0002341,15:01:07.232773
0.039242,+0000003,-0000013,-0000006,+0000027,-0000072,+0004164,-0000756,+0000468,-0002341,15:01:07.232773
0.039575,+0000007,-0000016,-0000011,+0000010,-0000072,+0004149,-0000764,+0000474,-0002338,15:01:07.232773
0.039908,+0000021,-0000034,-0000008,+0000020,-0000073,+0004151,-0000764,+0000474,-0002338,15:01:07.232773
0.040241,+0000025,-0000040,-0000008,+0000031,-0000088,+0004144,-0000764,+0000474,-0002338,15:01:07.232773
0.040574,+0000005,-0000007,-0000010,+0000017,-0000094,+0004171,-0000752,+0000466,-0002323,15:01:07.232773
0.040907,+0000005,-0000026,-0000007,+0000008,-0000076,+0004136,-0000752,+0000466,-0002323,15:01:07.232773
0.041240,+0000013,-0000026,-0000013,+0000010,-0000076,+0004143,-0000752,+0000466,-0002323,15:01:07.232773
0.041573,+0000002,-0000007,-0000021,+0000008,-0000087,+0004160,-0000764,+0000462,-0002348,15:01:07.232773
0.041906,+0000019,-0000037,-0000005,+0000004,-0000086,+0004154,-0000764,+0000462,-0002348,15:01:07.521217
0.042240,+0000016,-0000021,-0000010,+0000038,-0000073,+0004162,-0000764,+0000462,-0002348,15:01:07.521217
0.042574,+0000015,-0000029,-0000008,+0000027,-0000083,+0004135,-0000762,+0000472,-0002336,15:01:07.521217
0.043289,+0000005,-0000014,-0000004,+0000024,-0000084,+0004119,-0000762,+0000472,-0002336,15:01:07.521217
0.043658,+0000003,-0000011,-0000003,+0000022,-0000098,+0004145,-0000762,+0000472,-0002336,15:01:07.521217
0.043966,+0000014,-0000019,-0000008,+0000016,-0000084,+0004146,-0000758,+0000470,-0002320,15:01:07.521217
0.044237,+0000028,-0000045,-0000021,+0000005,-0000104,+0004149,-0000758,+0000470,-0002320,15:01:07.521217
0.044570,+0000024,-0000031,-0000008,+0000024,-0000093,+0004145,-0000758,+0000470,-0002320,15:01:07.521217
0.044903,+0000016,-0000018,-0000013,+0000023,-0000089,+0004141,-0000778,+0000458,-0002330,15:01:07.521217
0.045236,+0000011,-0000015,+0000009,+0000010,-0000085,+0004147,-0000778,+0000458,-0002330,15:01:07.521217
0.045569,+0000017,-0000034,-0000008,+0000008,-0000096,+0004146,-0000778,+0000458,-0002330,15:01:07.521217
0.045902,+0000033,-0000040,-0000004,-0000003,-0000090,+0004137,-0000764,+0000478,-0002324,15:01:07.521217
0.046235,+0000010,-0000026,-0000005,+0000001,-0000076,+0004147,-0000764,+0000478,-0002324,15:01:07.521217
0.046568,+0000035,-0000031,-0000016,+0000016,-0000076,+0004155,-0000764,+0000478,-0002324,15:01:07.521217
0.046928,-0000009,-0000012,+0000000,+0000040,-0000069,+0004131,-0000764,+0000470,-0002334,15:01:07.521217
0.047234,+0000005,-0000020,-0000005,+0000028,-0000105,+0004142,-0000764,+0000470,-0002334,15:01:07.521217
0.047567,+0000022,-0000021,-0000008,+0000005,-0000097,+0004145,-0000764,+0000470,-0002334,15:01:07.521217
0.047900,+0000019,-0000044,-0000019,+0000010,-0000101,+0004155,-0000776,+0000474,-0002317,15:01:07.521217
0.048233,+0000019,-0000030,-0000012,+0000020,-0000084,+0004128,-0000776,+0000474,-0002317,15:01:07.521217
0.048566,+0000008,-0000019,-0000008,+0000028,-0000100,+0004136,-0000776,+0000474,-0002317,15:01:07.521217
0.048899,+0000005,-0000008,-0000013,+0000040,-0000085,+0004149,-0000748,+0000460,-0002334,15:01:07.521217
0.049232,+0000006,-0000029,+0000001,+0000026,-0000082,+0004154,-0000748,+0000460,-0002334,15:01:07.521217
0.049565,+0000022,-0000034,-0000006,+0000024,-0000056,+0004164,-0000748,+0000460,-0002334,15:01:07.521217
0.049898,+0000027,-0000040,-0000010,+0000029,-0000076,+0004167,-0000750,+0000458,-0002346,15:01:07.521217
0.050231,+0000025,-0000016,-0000010,+0000021,-0000069,+0004170,-0000750,+0000458,-0002346,15:01:07.521217
0.050564,+0000024,-0000013,-0000008,+0000029,-0000090,+0004163,-0000750,+0000458,-0002346,15:01:07.521217
0.050897,+0000002,-0000018,-0000010,+0000019,-0000097,+0004129,-0000774,+0000474,-0002330,15:01:07.521217
0.051230,+0000016,-0000021,+0000006,+0000021,-0000079,+0004173,-0000774,+0000474,-0002330,15:01:07.521217
0.051563,+0000025,-0000020,-0000005,+0000014,-0000070,+0004149,-0000774,+0000474,-0002330,15:01:07.521217
0.051896,+0000036,-0000028,-0000004,+0000014,-0000092,+0004149,-0000766,+0000472,-0002327,15:01:07.521217
0.052229,+0000002,-0000010,-0000012,+0000035,-0000065,+0004138,-0000766,+0000472,-0002327,15:01:07.521217
0.052562,+0000021,-0000027,-0000015,+0000008,-0000084,+0004150,-0000766,+0000472,-0002327,15:01:07.521217
0.052895,-0000006,-0000010,+0000007,+0000023,-0000083,+0004169,-0000768,+0000460,-0002328,15:01:07.521217
0.053228,+0000030,-0000021,-0000019,+0000019,-0000080,+0004163,-0000768,+0000460,-0002328,15:01:07.521217
0.053561,+0000011,-0000026,-0000010,+0000029,-0000085,+0004154,-0000768,+0000460,-0002328,15:01:07.521217
0.053894,+0000011,-0000034,-0000008,+0000022,-0000083,+0004160,-0000768,+0000464,-0002343,15:01:07.521217
0.054227,+0000013,-0000029,-0000013,+0000038,-0000053,+0004155,-0000768,+0000464,-0002343,15:01:07.521217
0.054562,+0000016,-0000005,-0000008,+0000027,-0000074,+0004159,-0000768,+0000464,-0002343,15:01:07.521217
0.054893,-0000003,-0000010,-0000008,+0000021,-0000088,+0004146,-0000768,+0000460,-0002334,15:01:07.521217
0.055226,+0000030,-0000045,+0000006,+0000029,-0000090,+0004176,-0000768,+0000460,-0002334,15:01:07.521217
0.055559,+0000017,-0000042,-0000023,+0000032,-0000092,+0004139,-0000768,+0000460,-0002334,15:01:07.521217
0.055892,+0000017,-0000018,+0000002,+0000026,-0000085,+0004149,-0000766,+0000484,-0002344,15:01:07.521217
0.056225,+0000022,-0000031,-0000019,+0000014,-0000083,+0004142,-0000766,+0000484,-0002344,15:01:07.521217
0.056558,+0000002,-0000002,-0000010,+0000026,-0000080,+0004144,-0000766,+0000484,-0002344,15:01:07.521217
0.056926,+0000010,-0000019,-0000013,+0000026,-0000092,+0004136,-0000744,+0000468,-0002327,15:01:07.521217
0.057224,+0000016,-0000013,+0000004,+0000041,-0000078,+0004152,-0000744,+0000468,-0002327,15:01:07.521217
0.057737,+0000017,-0000029,-0000005,+0000027,-0000089,+0004151,-0000744,+0000468,-0002327,15:01:07.521217
0.057936,+0000016,-0000029,-0000005,+0000027,-0000089,+0004151,-0000756,+0000470,-0002340,15:01:07.521217
0.058225,-0000011,+0000000,+0000001,+0000014,-0000099,+0004139,-0000756,+0000470,-0002340,15:01:07.521217
0.058558,+0000020,-0000024,-0000011,+0000006,-0000081,+0004148,-0000756,+0000470,-0002340,15:01:07.521217
0.058890,+0000000,-0000007,-0000005,+0000019,-0000089,+0004159,-0000758,+0000476,-0002314,15:01:07.521217
0.059223,+0000019,-0000029,-0000010,+0000027,-0000076,+0004140,-0000758,+0000476,-0002314,15:01:07.521217
0.059556,+0000030,-0000058,-0000014,+0000011,-0000087,+0004139,-0000758,+0000476,-0002314,15:01:07.521217
0.059888,+0000013,-0000026,-0000015,+0000038,-0000069,+0004125,-0000748,+0000458,-0002331,15:01:07.521217
0.060222,+0000014,-0000037,-0000010,+0000013,-0000114,+0004144,-0000748,+0000458,-0002331,15:01:07.521217
0.060554,-0000009,-0000002,+0000002,+0000037,-0000069,+0004151,-0000748,+0000458,-0002331,15:01:07.521217
0.060887,+0000015,-0000029,-0000016,+0000031,-0000095,+0004163,-0000764,+0000466,-0002322,15:01:07.521217
0.061221,+0000008,-0000024,-0000010,+0000015,-0000067,+0004148,-0000764,+0000466,-0002322,15:01:07.521217
0.061554,+0000032,-0000031,-0000013,+0000017,-0000102,+0004138,-0000764,+0000466,-0002322,15:01:07.521217
0.061887,+0000025,-0000038,-0000016,+0000034,-0000077,+0004135,-0000744,+0000466,-0002332,15:01:07.521217
0.062219,+0000007,+0000004,-0000003,+0000015,-0000081,+0004157,-0000744,+0000466,-0002332,15:01:07.521217
0.062552,+0000001,-0000004,+0000000,+0000000,-0000104,+0004148,-0000744,+0000466,-0002332,15:01:07.521217
0.062885,+0000019,-0000034,-0000004,+0000018,-0000087,+0004148,-0000754,+0000474,-0002351,15:01:07.521217
0.063218,+0000016,-0000026,-0000018,+0000015,-0000075,+0004146,-0000754,+0000474,-0002351,15:01:07.521217
0.063551,+0000020,-0000038,-0000011,+0000022,-0000077,+0004151,-0000754,+0000474,-0002351,15:01:07.521217
0.063884,+0000030,-0000016,-0000011,+0000009,-0000063,+0004159,-0000756,+0000482,-0002336,15:01:07.521217
0.064217,-0000008,-0000012,+0000003,+0000024,-0000083,+0004157,-0000756,+0000482,-0002336,15:01:07.521217
0.064550,+0000016,-0000008,-0000016,+0000026,-0000078,+0004140,-0000756,+0000482,-0002336,15:01:07.521217
0.064883,+0000016,-0000024,-0000010,+0000020,-0000079,+0004149,-0000746,+0000470,-0002338,15:01:07.521217
0.065216,+0000006,-0000036,-0000010,+0000009,-0000090,+0004171,-0000746,+0000470,-0002338,15:01:07.521217
0.065549,+0000030,-0000013,-0000010,+0000007,-0000077,+0004153,-0000746,+0000470,-0002338,15:01:07.521217
0.065882,+0000014,-0000029,-0000008,+0000028,-0000086,+0004154,-0000760,+0000464,-0002325,15:01:07.521217
0.066215,+0000016,+0000000,-0000011,+0000016,-0000069,+0004167,-0000760,+0000464,-0002325,15:01:07.521217
0.066548,+0000010,-0000011,-0000015,+0000025,-0000095,+0004151,-0000760,+0000464,-0002325,15:01:07.521217
0.066881,+0000007,-0000010,-0000002,+0000024,-0000086,+0004157,-0000752,+0000470,-0002325,15:01:07.521217
0.067214,+0000028,-0000039,-0000005,+0000019,-0000074,+0004158,-0000752,+0000470,-0002325,15:01:07.521217
0.067547,+0000022,-0000029,-0000016,+0000026,-0000075,+0004170,-0000752,+0000470,-0002325,15:01:07.521217
0.067880,+0000008,-0000024,+0000000,+0000017,-0000083,+0004157,-0000754,+0000466,-0002345,15:01:07.521217
0.068213,+0000011,-0000013,-0000021,+0000023,-0000070,+0004178,-0000754,+0000466,-0002345,15:01:07.521217
0.068546,+0000010,-0000006,-0000011,+0000027,-0000074,+0004159,-0000754,+0000466,-0002345,15:01:07.521217
0.068879,+0000011,-0000023,-0000024,+0000013,-0000095,+0004159,-0000758,+0000480,-0002320,15:01:07.521217
0.069212,+0000013,-0000021,+0000001,+0000002,-0000094,+0004151,-0000758,+0000480,-0002320,15:01:07.521217
0.069545,+0000019,-0000035,-0000013,+0000004,-0000078,+0004171,-0000758,+0000480,-0002320,15:01:07.521217
0.069878,+0000014,-0000027,-0000014,+0000014,-0000064,+0004134,-0000744,+0000472,-0002345,15:01:07.521217
0.070211,+0000008,-0000015,-0000002,+0000025,-0000072,+0004176,-0000744,+0000472,-0002345,15:01:07.521217
0.070544,+0000012,-0000024,-0000019,+0000003,-0000093,+0004143,-0000744,+0000472,-0002345,15:01:07.521217
0.070877,+0000014,-0000022,-0000010,+0000020,-0000083,+0004146,-0000740,+0000488,-0002337,15:01:07.521217
0.071210,+0000019,-0000029,-0000013,+0000025,-0000076,+0004164,-0000740,+0000488,-0002337,15:01:07.521217
0.071543,+0000024,-0000039,-0000007,+0000023,-0000060,+0004144,-0000740,+0000488,-0002337,15:01:07.521217
0.071876,+0000005,-0000023,-0000008,+0000021,-0000087,+0004151,-0000758,+0000486,-0002359,15:01:07.521217
0.072209,+0000021,-0000014,-0000018,+0000012,-0000073,+0004135,-0000758,+0000486,-0002359,15:01:07.521217
0.072542,-0000005,-0000020,+0000001,+0000022,-0000079,+0004137,-0000758,+0000486,-0002359,15:01:07.521217
0.072875,+0000014,-0000010,+0000003,+0000019,-0000072,+0004156,-0000764,+0000472,-0002344,15:01:07.523215
0.073208,+0000021,-0000045,-0000013,+0000020,-0000092,+0004140,-0000764,+0000472,-0002344,15:01:07.524217
0.073541,+0000017,-0000024,-0000024,+0000011,-0000098,+0004145,-0000764,+0000472,-0002344,15:01:07.524217
0.073874,+0000016,-0000026,+0000007,+0000006,-0000083,+0004171,-0000768,+0000460,-0002339,15:01:07.524217
0.074207,+0000007,+0000011,-0000007,+0000010,-0000093,+0004152,-0000768,+0000460,-0002339,15:01:07.524217
0.074540,+0000008,-0000015,+0000001,+0000033,-0000092,+0004135,-0000768,+0000460,-0002339,15:01:07.524217
0.074873,+0000025,-0000034,-0000015,+0000015,-0000078,+0004149,-0000756,+0000484,-0002349,15:01:07.524217
0.075206,+0000014,-0000050,-0000014,+0000014,-0000074,+0004148,-0000756,+0000484,-0002349,15:01:07.524217
0.075539,+0000027,-0000018,-0000011,+0000011,-0000084,+0004149,-0000756,+0000484,-0002349,15:01:07.524217
0.075872,+0000019,-0000010,-0000019,+0000040,-0000105,+0004144,-0000756,+0000462,-0002353,15:01:07.524217
0.076205,+0000003,-0000021,-0000002,+0000024,-0000107,+0004156,-0000756,+0000462,-0002353,15:01:07.524217
0.076538,+0000021,-0000015,-0000010,+0000017,-0000100,+0004142,-0000756,+0000462,-0002353,15:01:07.524217
0.076871,+0000010,-0000040,-0000019,+0000021,-0000075,+0004135,-0000736,+0000466,-0002333,15:01:07.524217
0.077204,+0000025,-0000035,-0000016,+0000026,-0000091,+0004135,-0000736,+0000466,-0002333,15:01:07.524217
0.077537,+0000014,-0000024,-0000013,+0000021,-0000094,+0004140,-0000736,+0000466,-0002333,15:01:07.524217
0.077870,-0000005,-0000002,+0000001,+0000024,-0000080,+0004143,-0000744,+0000460,-0002339,15:01:07.524217
0.078203,+0000014,-0000021,-0000015,+0000013,-0000091,+0004133,-0000744,+0000460,-0002339,15:01:07.524217
0.078536,+0000016,-0000015,+0000000,+0000025,-0000099,+0004159,-0000744,+0000460,-0002339,15:01:07.524217
0.078869,+0000024,-0000029,-0000011,+0000016,-0000078,+0004131,-0000744,+0000456,-0002340,15:01:07.524217
0.079202,+0000028,-0000024,-0000016,+0000015,-0000106,+0004150,-0000744,+0000456,-0002340,15:01:07.524217
0.079535,+0000008,-0000018,-0000002,+0000000,-0000089,+0004139,-0000744,+0000456,-0002340,15:01:07.524217
0.079868,+0000006,-0000018,-0000008,+0000009,-0000088,+0004139,-0000740,+0000470,-0002348,15:01:07.524217
0.080201,+0000006,-0000002,-0000008,+0000009,-0000085,+0004144,-0000740,+0000470,-0002348,15:01:07.524217
0.080534,+0000006,-0000023,-0000010,+0000015,-0000083,+0004142,-0000740,+0000470,-0002348,15:01:07.524217
0.080867,+0000024,-0000032,-0000016,+0000010,-0000090,+0004128,-0000748,+0000460,-0002354,15:01:07.524217
0.081200,+0000028,-0000026,-0000013,+0000026,-0000081,+0004158,-0000748,+0000460,-0002354,15:01:07.524217
0.081533,+0000010,-0000026,+0000000,+0000019,-0000087,+0004165,-0000748,+0000460,-0002354,15:01:07.524217
0.081866,+0000014,-0000023,-0000019,+0000027,-0000080,+0004144,-0000768,+0000464,-0002338,15:01:07.524217
0.082199,+0000010,-0000013,+0000001,+0000011,-0000092,+0004147,-0000768,+0000464,-0002338,15:01:07.524217
0.082532,+0000008,-0000023,-0000005,+0000010,-0000109,+0004167,-0000768,+0000464,-0002338,15:01:07.524217
0.082865,+0000024,-0000035,-0000003,+0000018,-0000099,+0004165,-0000756,+0000462,-0002375,15:01:07.526218
0.083198,+0000019,-0000028,-0000016,+0000023,-0000083,+0004154,-0000756,+0000462,-0002375,15:01:07.526218
0.083531,+0000010,-0000020,-0000004,+0000016,-0000092,+0004135,-0000756,+0000462,-0002375,15:01:07.526218
0.083865,+0000016,-0000027,-0000013,+0000042,-0000082,+0004170,-0000750,+0000472,-0002354,15:01:07.526218
0.084197,+0000005,-0000005,+0000007,+0000017,-0000076,+0004173,-0000750,+0000472,-0002354,15:01:07.526218
0.084530,+0000019,-0000035,-0000005,+0000022,-0000076,+0004156,-0000750,+0000472,-0002354,15:01:07.526218
0.084863,+0000024,-0000043,-0000007,+0000036,-0000080,+0004148,-0000764,+0000446,-0002375,15:01:07.526218
0.085196,+0000014,-0000021,+0000001,+0000046,-0000077,+0004168,-0000764,+0000446,-0002375,15:01:07.526218
0.085529,+0000028,-0000031,-0000014,+0000019,-0000059,+0004157,-0000764,+0000446,-0002375,15:01:07.526218
0.085862,+0000013,-0000015,-0000005,+0000041,-0000073,+0004137,-0000778,+0000466,-0002343,15:01:07.526218
0.086195,+0000002,-0000003,-0000002,+0000023,-0000077,+0004153,-0000778,+0000466,-0002343,15:01:07.526218
0.086528,+0000019,-0000027,-0000010,+0000026,-0000067,+0004162,-0000778,+0000466,-0002343,15:01:07.526218
0.086861,+0000010,-0000019,-0000010,+0000023,-0000086,+0004144,-0000760,+0000460,-0002322,15:01:07.526218
0.087194,+0000025,-0000035,-0000015,+0000040,-0000074,+0004165,-0000760,+0000460,-0002322,15:01:07.526218
0.087527,+0000008,-0000019,-0000006,+0000016,-0000089,+0004164,-0000760,+0000460,-0002322,15:01:07.526218
0.087860,+0000003,-0000008,-0000004,+0000025,-0000075,+0004164,-0000758,+0000454,-0002337,15:01:07.526218
0.088193,+0000003,-0000011,+0000000,+0000025,-0000067,+0004152,-0000758,+0000454,-0002337,15:01:07.526218
0.088526,+0000018,-0000032,-0000010,+0000003,-0000083,+0004152,-0000758,+0000454,-0002337,15:01:07.526218
0.088859,+0000013,-0000045,-0000008,+0000013,-0000082,+0004150,-0000766,+0000472,-0002374,15:01:07.526218
0.089192,+0000020,-0000034,-0000023,+0000008,-0000072,+0004142,-0000766,+0000472,-0002374,15:01:07.526218
0.089525,+0000010,-0000012,-0000008,+0000016,-0000088,+0004152,-0000766,+0000472,-0002374,15:01:07.526218
0.089858,-0000003,-0000015,-0000012,+0000013,-0000090,+0004166,-0000750,+0000476,-0002340,15:01:07.526218
0.090191,+0000008,-0000021,+0000000,+0000020,-0000086,+0004129,-0000750,+0000476,-0002340,15:01:07.526218
0.090524,+0000017,-0000045,-0000014,+0000035,-0000077,+0004156,-0000750,+0000476,-0002340,15:01:07.526218
0.090857,+0000017,-0000042,+0000006,+0000010,-0000060,+0004142,-0000756,+0000490,-0002342,15:01:07.526218
0.091190,+0000024,-0000006,+0000001,+0000025,-0000067,+0004163,-0000756,+0000490,-0002342,15:01:07.526218
0.091523,+0000018,-0000013,-0000008,+0000015,-0000087,+0004162,-0000756,+0000490,-0002342,15:01:07.526218
0.091856,-0000005,-0000012,-0000013,+0000024,-0000079,+0004151,-0000756,+0000476,-0002364,15:01:07.526218
0.092191,+0000024,-0000032,-0000002,+0000024,-0000083,+0004182,-0000756,+0000476,-0002364,15:01:07.526218
0.092523,+0000014,-0000027,-0000013,+0000012,-0000091,+0004156,-0000756,+0000476,-0002364,15:01:07.526218
0.092863,+0000019,-0000027,-0000019,+0000033,-0000093,+0004143,-0000768,+0000470,-0002341,15:01:07.526218
0.093377,+0000000,-0000037,-0000021,+0000041,-0000076,+0004156,-0000768,+0000470,-0002341,15:01:07.526218
0.093570,+0000019,-0000037,-0000021,+0000041,-0000076,+0004156,-0000768,+0000470,-0002341,15:01:07.526218
0.093858,+0000004,+0000003,+0000008,+0000030,-0000086,+0004139,-0000752,+0000476,-0002340,15:01:07.526218
0.094292,+0000019,-0000037,-0000013,+0000028,-0000088,+0004146,-0000752,+0000476,-0002340,15:01:07.526218
0.094524,+0000019,-0000019,-0000005,+0000028,-0000077,+0004152,-0000752,+0000476,-0002340,15:01:07.526218
0.094857,+0000017,-0000021,-0000002,+0000022,-0000073,+0004146,-0000772,+0000470,-0002335,15:01:07.526218
0.095189,-0000003,-0000016,-0000007,+0000034,-0000087,+0004129,-0000772,+0000470,-0002335,15:01:07.526218
0.095519,+0000007,-0000011,-0000013,+0000034,-0000082,+0004163,-0000772,+0000470,-0002335,15:01:07.526218
0.095852,+0000014,-0000012,+0000000,+0000017,-0000085,+0004154,-0000754,+0000466,-0002351,15:01:07.526218
0.096458,+0000008,-0000032,-0000011,+0000026,-0000095,+0004177,-0000754,+0000466,-0002351,15:01:07.526218
0.096656,+0000005,-0000032,-0000011,+0000026,-0000095,+0004177,-0000754,+0000466,-0002351,15:01:07.526218
0.096861,+0000011,-0000019,-0000018,+0000014,-0000096,+0004171,-0000744,+0000476,-0002329,15:01:07.526218
0.097186,+0000010,-0000021,-0000001,+0000039,-0000086,+0004147,-0000744,+0000476,-0002329,15:01:07.526218
0.097528,+0000015,-0000015,-0000002,+0000025,-0000101,+0004116,-0000744,+0000476,-0002329,15:01:07.526218
0.097850,+0000002,-0000021,-0000013,+0000009,-0000057,+0004133,-0000758,+0000488,-0002341,15:01:07.526218
0.098184,+0000003,-0000023,+0000001,+0000013,-0000071,+0004149,-0000758,+0000488,-0002341,15:01:07.527217
0.098516,+0000038,-0000036,-0000008,+0000012,-0000088,+0004158,-0000758,+0000488,-0002341,15:01:07.527217
0.098861,+0000014,-0000034,-0000011,+0000018,-0000073,+0004145,-0000748,+0000480,-0002314,15:01:07.527217
0.099182,+0000018,-0000024,-0000010,+0000029,-0000102,+0004149,-0000748,+0000480,-0002314,15:01:07.527217
0.099515,+0000002,-0000010,+0000009,+0000029,-0000093,+0004132,-0000748,+0000480,-0002314,15:01:07.527217
0.099860,+0000002,-0000005,-0000002,+0000028,-0000085,+0004156,-0000764,+0000476,-0002351,15:01:07.527217
0.100182,+0000029,-0000031,-0000014,+0000010,-0000083,+0004146,-0000764,+0000476,-0002351,15:01:07.527217
0.100515,+0000011,-0000026,-0000014,+0000011,-0000090,+0004166,-0000764,+0000476,-0002351,15:01:07.527217
0.100848,+0000015,-0000039,-0000011,+0000017,-0000091,+0004154,-0000776,+0000482,-0002324,15:01:07.527217
0.101180,+0000029,-0000020,-0000015,+0000022,-0000092,+0004123,-0000776,+0000482,-0002324,15:01:07.527217
0.101513,+0000006,-0000008,+0000000,+0000011,-0000087,+0004132,-0000776,+0000482,-0002324,15:01:07.527217
0.101859,+0000009,-0000002,-0000010,+0000025,-0000076,+0004140,-0000744,+0000480,-0002332,15:01:07.527217
0.102179,+0000025,-0000031,-0000003,+0000027,-0000084,+0004144,-0000744,+0000480,-0002332,15:01:07.527217
0.102512,+0000014,-0000034,-0000005,+0000026,-0000078,+0004155,-0000744,+0000480,-0002332,15:01:07.527217
0.102858,+0000027,-0000038,-0000015,+0000005,-0000099,+0004152,-0000754,+0000486,-0002337,15:01:07.527217
0.103179,+0000008,-0000013,+0000001,+0000042,-0000077,+0004155,-0000754,+0000486,-0002337,15:01:07.527217
0.103511,+0000004,-0000005,-0000002,+0000022,-0000084,+0004156,-0000754,+0000486,-0002337,15:01:07.527217
0.103857,+0000015,-0000023,-0000013,+0000005,-0000077,+0004162,-0000758,+0000474,-0002324,15:01:07.527217
0.104179,+0000014,-0000024,-0000005,+0000005,-0000088,+0004152,-0000758,+0000474,-0002324,15:01:07.527217
0.104510,+0000013,-0000031,-0000015,+0000035,-0000081,+0004146,-0000758,+0000474,-0002324,15:01:07.527217
0.104850,+0000003,-0000008,-0000013,+0000016,-0000092,+0004173,-0000754,+0000474,-0002329,15:01:07.527217
0.105176,+0000005,-0000019,-0000016,+0000039,-0000061,+0004155,-0000754,+0000474,-0002329,15:01:07.527217
0.105509,+0000014,-0000021,+0000001,+0000029,-0000084,+0004143,-0000754,+0000474,-0002329,15:01:07.527217
0.105842,+0000012,-0000027,-0000008,+0000032,-0000067,+0004139,-0000758,+0000462,-0002326,15:01:07.527217
0.106176,+0000009,-0000024,-0000013,+0000030,-0000087,+0004143,-0000758,+0000462,-0002326,15:01:07.527217
0.106508,+0000033,-0000015,-0000007,+0000003,-0000106,+0004166,-0000758,+0000462,-0002326,15:01:07.527217
0.106841,+0000010,-0000026,-0000015,+0000025,-0000066,+0004166,-0000756,+0000482,-0002317,15:01:07.527217
0.107176,+0000006,-0000012,-0000006,+0000024,-0000068,+0004176,-0000756,+0000482,-0002317,15:01:07.527217
0.107507,+0000006,-0000013,-0000002,+0000010,-0000064,+0004154,-0000756,+0000482,-0002317,15:01:07.527217
0.107840,+0000016,-0000023,-0000021,+0000016,-0000081,+0004141,-0000750,+0000472,-0002335,15:01:07.527217
0.108176,+0000016,-0000043,-0000011,+0000025,-0000067,+0004151,-0000750,+0000472,-0002335,15:01:07.527217
0.108506,+0000003,-0000023,-0000010,+0000028,-0000091,+0004167,-0000750,+0000472,-0002335,15:01:07.527217
0.108839,+0000013,-0000028,-0000013,+0000035,-0000061,+0004158,-0000760,+0000466,-0002318,15:01:07.527217
0.109172,+0000002,-0000016,+0000003,+0000020,-0000074,+0004151,-0000760,+0000466,-0002318,15:01:07.527217
0.109505,+0000014,-0000015,-0000007,+0000011,-0000075,+0004142,-0000760,+0000466,-0002318,15:01:07.527217
0.110207,+0000006,-0000028,-0000011,+0000027,-0000084,+0004145,-0000762,+0000466,-0002352,15:01:07.527217
0.110504,+0000013,-0000010,-0000004,+0000020,-0000096,+0004159,-0000762,+0000466,-0002352,15:01:07.528216
0.110837,+0000008,-0000024,-0000007,+0000024,-0000067,+0004134,-0000762,+0000466,-0002352,15:01:07.528216
0.111172,+0000008,+0000001,+0000000,+0000025,-0000112,+0004166,-0000770,+0000474,-0002332,15:01:07.528216
0.111503,+0000008,-0000012,-0000016,+0000031,-0000075,+0004143,-0000770,+0000474,-0002332,15:01:07.528216
0.111836,+0000010,-0000018,-0000004,+0000022,-0000104,+0004145,-0000770,+0000474,-0002332,15:01:07.528216
0.112172,+0000021,-0000024,-0000012,+0000021,-0000095,+0004137,-0000766,+0000482,-0002330,15:01:07.528216
0.112502,+0000015,-0000035,+0000000,+0000011,-0000105,+0004146,-0000766,+0000482,-0002330,15:01:07.528216
0.112835,+0000018,-0000013,-0000024,+0000018,-0000078,+0004128,-0000766,+0000482,-0002330,15:01:07.528216
0.113172,+0000010,-0000019,-0000003,+0000018,-0000081,+0004136,-0000770,+0000476,-0002332,15:01:07.567815
0.113501,-0000003,-0000008,-0000016,+0000026,-0000090,+0004139,-0000770,+0000476,-0002332,15:01:07.567815
0.113834,+0000026,-0000036,-0000002,+0000027,-0000090,+0004143,-0000770,+0000476,-0002332,15:01:07.567815
0.114172,+0000011,-0000032,-0000015,+0000024,-0000088,+0004131,-0000746,+0000484,-0002344,15:01:07.567815
0.114500,+0000020,-0000039,-0000005,+0000023,-0000100,+0004141,-0000746,+0000484,-0002344,15:01:07.567815
0.114833,+0000013,-0000020,-0000012,+0000024,-0000086,+0004140,-0000746,+0000484,-0002344,15:01:07.567815
0.115171,+0000002,+0000000,+0000000,+0000015,-0000085,+0004122,-0000752,+0000472,-0002343,15:01:07.567815
0.115499,+0000000,-0000023,-0000015,+0000017,-0000083,+0004147,-0000752,+0000472,-0002343,15:01:07.567815
0.115832,+0000032,-0000029,-0000005,+0000013,-0000074,+0004146,-0000752,+0000472,-0002343,15:01:07.568813
0.116170,+0000019,-0000048,-0000013,+0000020,-0000071,+0004150,-0000742,+0000460,-0002333,15:01:07.568813
0.116498,+0000027,-0000032,-0000013,+0000023,-0000080,+0004152,-0000742,+0000460,-0002333,15:01:07.568813
0.116831,+0000019,-0000024,-0000016,+0000019,-0000091,+0004132,-0000742,+0000460,-0002333,15:01:07.568813
0.117170,+0000002,-0000014,-0000005,+0000025,-0000084,+0004145,-0000750,+0000474,-0002327,15:01:07.568813
0.117497,+0000004,-0000016,+0000008,+0000002,-0000087,+0004138,-0000750,+0000474,-0002327,15:01:07.568813
0.117830,+0000039,-0000039,-0000013,+0000024,-0000074,+0004155,-0000750,+0000474,-0002327,15:01:07.568813
0.118169,+0000027,-0000034,-0000019,+0000013,-0000086,+0004151,-0000738,+0000470,-0002294,15:01:07.568813
0.118496,+0000014,-0000015,-0000005,+0000011,-0000083,+0004168,-0000738,+0000470,-0002294,15:01:07.568813
0.118829,+0000011,-0000005,-0000014,+0000014,-0000106,+0004162,-0000738,+0000470,-0002294,15:01:07.568813
0.119168,+0000013,-0000019,-0000005,+0000034,-0000107,+0004162,-0000764,+0000474,-0002328,15:01:07.568813
0.119495,+0000010,-0000023,-0000021,+0000030,-0000085,+0004147,-0000764,+0000474,-0002328,15:01:07.568813
0.119828,+0000008,-0000031,+0000002,+0000002,-0000080,+0004173,-0000764,+0000474,-0002328,15:01:07.568813
0.120167,+0000033,-0000010,-0000010,+0000025,-0000080,+0004174,-0000756,+0000464,-0002336,15:01:07.568813
0.120494,+0000013,-0000031,-0000005,+0000024,-0000072,+0004166,-0000756,+0000464,-0002336,15:01:07.568813
0.120827,+0000002,-0000005,-0000005,+0000031,-0000090,+0004166,-0000756,+0000464,-0002336,15:01:07.568813
0.121166,+0000019,-0000016,-0000016,+0000023,-0000073,+0004149,-0000760,+0000460,-0002329,15:01:07.568813
0.121493,+0000002,-0000015,+0000000,+0000011,-0000092,+0004167,-0000760,+0000460,-0002329,15:01:07.568813
0.121826,+0000017,-0000035,-0000011,+0000021,-0000081,+0004173,-0000760,+0000460,-0002329,15:01:07.568813
0.122165,+0000017,-0000024,-0000002,+0000031,-0000080,+0004172,-0000750,+0000462,-0002327,15:01:07.568813
0.122492,+0000007,-0000019,-0000016,+0000019,-0000079,+0004167,-0000750,+0000462,-0002327,15:01:07.568813
0.122825,+0000010,-0000016,-0000008,+0000010,-0000081,+0004159,-0000750,+0000462,-0002327,15:01:07.568813
0.123164,+0000000,-0000005,+0000000,+0000006,-0000058,+0004153,-0000748,+0000470,-0002329,15:01:07.568813
0.123491,+0000025,-0000018,-0000010,+0000033,-0000097,+0004164,-0000748,+0000470,-0002329,15:01:07.568813
0.123824,+0000016,-0000037,-0000013,+0000036,-0000070,+0004166,-0000748,+0000470,-0002329,15:01:07.568813
0.124163,+0000016,-0000032,-0000007,+0000007,-0000083,+0004176,-0000756,+0000472,-0002322,15:01:07.568813
0.124490,+0000005,-0000029,-0000010,+0000010,-0000065,+0004167,-0000756,+0000472,-0002322,15:01:07.568813
0.124823,+0000008,+0000003,-0000015,-0000001,-0000070,+0004165,-0000756,+0000472,-0002322,15:01:07.568813
0.125156,-0000002,-0000010,-0000005,+0000034,-0000090,+0004162,-0000754,+0000462,-0002318,15:01:07.568813
0.125489,+0000018,-0000011,-0000008,+0000014,-0000110,+0004151,-0000754,+0000462,-0002318,15:01:07.568813
0.125822,+0000007,-0000026,+0000003,+0000015,-0000088,+0004148,-0000754,+0000462,-0002318,15:01:07.568813
0.126155,+0000023,-0000036,-0000018,+0000022,-0000075,+0004149,-0000752,+0000480,-0002332,15:01:07.568813
0.126488,+0000003,-0000020,-0000005,+0000006,-0000092,+0004142,-0000752,+0000480,-0002332,15:01:07.568813
0.126821,+0000016,-0000029,-0000012,+0000005,-0000091,+0004148,-0000752,+0000480,-0002332,15:01:07.568813
0.127154,+0000002,-0000020,-0000008,+0000021,-0000098,+0004142,-0000762,+0000480,-0002351,15:01:07.568813
0.127487,+0000019,-0000024,-0000005,+0000013,-0000088,+0004153,-0000762,+0000480,-0002351,15:01:07.568813
0.127820,+0000027,-0000034,-0000007,+0000032,-0000087,+0004169,-0000762,+0000480,-0002351,15:01:07.568813
0.128153,+0000019,-0000042,-0000011,+0000023,-0000084,+0004162,-0000764,+0000468,-0002333,15:01:07.568813
0.128486,+0000019,-0000016,-0000011,+0000011,-0000103,+0004127,-0000764,+0000468,-0002333,15:01:07.568813
0.128819,+0000001,-0000003,+0000008,+0000006,-0000086,+0004140,-0000764,+0000468,-0002333,15:01:07.568813
0.129152,+0000005,-0000016,-0000004,+0000004,-0000095,+0004122,-0000772,+0000474,-0002302,15:01:07.568813
0.129485,+0000024,-0000034,-0000013,+0000016,-0000084,+0004157,-0000772,+0000474,-0002302,15:01:07.568813
0.129818,+0000010,-0000032,-0000002,+0000032,-0000083,+0004130,-0000772,+0000474,-0002302,15:01:07.568813
0.130151,+0000024,-0000042,-0000021,+0000020,-0000093,+0004135,-0000752,+0000470,-0002297,15:01:07.568813
0.130484,+0000011,-0000021,-0000016,+0000036,-0000116,+0004145,-0000752,+0000470,-0002297,15:01:07.568813
0.130817,+0000003,-0000008,-0000005,+0000012,-0000093,+0004142,-0000752,+0000470,-0002297,15:01:07.568813
0.131150,+0000013,-0000019,-0000012,+0000016,-0000085,+0004149,-0000764,+0000482,-0002344,15:01:07.568813
0.131483,+0000022,-0000040,-0000008,+0000039,-0000080,+0004150,-0000764,+0000482,-0002344,15:01:07.568813
0.131816,+0000018,-0000035,-0000008,+0000012,-0000085,+0004150,-0000764,+0000482,-0002344,15:01:07.568813
0.132149,+0000024,-0000018,-0000019,-0000008,-0000074,+0004153,-0000744,+0000480,-0002364,15:01:07.568813
0.132482,+0000000,-0000008,+0000004,+0000016,-0000072,+0004128,-0000744,+0000480,-0002364,15:01:07.568813
0.132815,+0000010,-0000031,-0000016,+0000007,-0000071,+0004145,-0000744,+0000480,-0002364,15:01:07.568813
0.133148,+0000014,-0000022,-0000010,+0000013,-0000088,+0004151,-0000760,+0000486,-0002355,15:01:07.568813
0.133481,+0000006,-0000029,-0000008,+0000018,-0000089,+0004153,-0000760,+0000486,-0002355,15:01:07.568813
0.133814,+0000028,-0000019,-0000015,+0000025,-0000101,+0004179,-0000760,+0000486,-0002355,15:01:07.568813
0.134147,+0000007,-0000037,+0000008,+0000016,-0000095,+0004160,-0000748,+0000478,-0002341,15:01:07.568813
0.134480,+0000013,-0000007,-0000024,+0000005,-0000085,+0004154,-0000748,+0000478,-0002341,15:01:07.568813
0.134813,+0000007,-0000015,+0000009,+0000042,-0000078,+0004148,-0000748,+0000478,-0002341,15:01:07.568813
0.135146,-0000005,-0000021,-0000019,+0000020,-0000080,+0004155,-0000766,+0000476,-0002319,15:01:07.568813
0.135479,+0000033,-0000037,+0000001,+0000016,-0000090,+0004149,-0000766,+0000476,-0002319,15:01:07.568813
0.135812,+0000030,-0000034,-0000021,+0000030,-0000046,+0004152,-0000766,+0000476,-0002319,15:01:07.568813
0.136145,+0000010,-0000018,+0000000,+0000034,-0000060,+0004163,-0000766,+0000492,-0002363,15:01:07.568813
0.136478,+0000017,-0000034,-0000023,+0000018,-0000083,+0004161,-0000766,+0000492,-0002363,15:01:07.568813
0.136811,+0000008,-0000005,+0000000,+0000031,-0000083,+0004167,-0000766,+0000492,-0002363,15:01:07.568813
0.137144,+0000015,-0000030,-0000007,+0000005,-0000067,+0004139,-0000766,+0000476,-0002346,15:01:07.568813
0.137477,+0000013,-0000026,-0000005,+0000017,-0000089,+0004175,-0000766,+0000476,-0002346,15:01:07.568813
0.137810,+0000030,-0000024,-0000013,+0000028,-0000078,+0004148,-0000766,+0000476,-0002346,15:01:07.568813
0.138143,+0000013,-0000024,-0000018,+0000007,-0000086,+0004163,-0000754,+0000474,-0002337,15:01:07.568813
0.138476,+0000007,-0000010,-0000005,+0000025,-0000082,+0004148,-0000754,+0000474,-0002337,15:01:07.568813
0.138809,+0000002,-0000007,-0000005,+0000042,-0000068,+0004168,-0000754,+0000474,-0002337,15:01:07.568813
0.139142,+0000029,-0000032,-0000011,+0000009,-0000100,+0004150,-0000750,+0000454,-0002314,15:01:07.568813
0.139475,+0000011,-0000023,+0000008,+0000022,-0000080,+0004170,-0000750,+0000454,-0002314,15:01:07.568813
0.139808,+0000024,-0000045,-0000024,+0000024,-0000089,+0004173,-0000750,+0000454,-0002314,15:01:07.568813
0.140141,+0000024,-0000024,-0000010,+0000026,-0000088,+0004156,-0000766,+0000462,-0002347,15:01:07.568813
0.140474,-0000006,-0000011,+0000004,+0000030,-0000088,+0004139,-0000766,+0000462,-0002347,15:01:07.568813
0.140807,+0000008,-0000023,-0000010,+0000024,-0000079,+0004157,-0000766,+0000462,-0002347,15:01:07.568813
0.141140,+0000013,-0000032,-0000005,+0000032,-0000100,+0004149,-0000770,+0000488,-0002349,15:01:07.568813
0.141473,+0000022,-0000034,+0000000,+0000024,-0000084,+0004157,-0000770,+0000488,-0002349,15:01:07.568813
0.141806,+0000016,-0000035,-0000011,+0000018,-0000105,+0004158,-0000770,+0000488,-0002349,15:01:07.568813
0.142143,+0000027,-0000026,-0000013,-0000008,-0000090,+0004140,-0000744,+0000468,-0002340,15:01:07.568813
0.142472,-0000001,+0000000,+0000001,+0000030,-0000113,+0004150,-0000744,+0000468,-0002340,15:01:07.568813
0.142807,+0000016,-0000036,-0000011,+0000029,-0000084,+0004156,-0000744,+0000468,-0002340,15:01:07.568813
0.143487,+0000009,-0000028,-0000004,+0000003,-0000097,+0004164,-0000738,+0000466,-0002353,15:01:07.568813
0.143865,+0000010,-0000019,-0000008,+0000044,-0000091,+0004161,-0000738,+0000466,-0002353,15:01:07.568813
0.144142,+0000017,-0000034,-0000007,+0000018,-0000079,+0004174,-0000738,+0000466,-0002353,15:01:07.568813
0.144477,+0000017,-0000043,-0000013,+0000010,-0000091,+0004158,-0000758,+0000454,-0002354,15:01:07.568813
0.144808,+0000011,-0000029,-0000010,+0000019,-0000090,+0004122,-0000758,+0000454,-0002354,15:01:07.568813
0.145138,+0000016,-0000021,-0000010,+0000023,-0000074,+0004160,-0000758,+0000454,-0002354,15:01:07.568813
0.145470,+0000016,-0000032,-0000015,+0000032,-0000087,+0004161,-0000748,+0000468,-0002331,15:01:07.568813
0.145803,+0000024,-0000013,-0000004,+0000042,-0000083,+0004154,-0000748,+0000468,-0002331,15:01:07.568813
0.146135,+0000005,-0000021,-0000010,+0000012,-0000089,+0004162,-0000748,+0000468,-0002331,15:01:07.568813
0.146468,+0000015,-0000007,-0000010,+0000017,-0000086,+0004155,-0000764,+0000466,-0002360,15:01:07.568813
0.146801,+0000008,-0000027,-0000002,+0000015,-0000097,+0004124,-0000764,+0000466,-0002360,15:01:07.568813
0.147134,+0000027,-0000029,-0000015,+0000027,-0000067,+0004160,-0000764,+0000466,-0002360,15:01:07.568813
0.147467,+0000030,-0000024,-0000007,+0000013,-0000060,+0004160,-0000746,+0000464,-0002350,15:01:07.568813
0.147800,+0000000,-0000013,+0000001,+0000028,-0000063,+0004141,-0000746,+0000464,-0002350,15:01:07.568813
0.148133,+0000014,-0000023,-0000010,-0000002,-0000088,+0004139,-0000746,+0000464,-0002350,15:01:07.568813
0.148501,+0000002,-0000018,-0000013,+0000024,-0000069,+0004167,-0000756,+0000468,-0002375,15:01:07.568813
0.148799,+0000016,-0000023,-0000005,+0000018,-0000099,+0004166,-0000756,+0000468,-0002375,15:01:07.568813
0.149132,+0000013,-0000021,-0000005,+0000036,-0000072,+0004168,-0000756,+0000468,-0002375,15:01:07.568813
0.149465,+0000021,-0000032,-0000026,+0000042,-0000104,+0004159,-0000758,+0000470,-0002337,15:01:07.568813
0.149798,+0000008,-0000015,+0000004,+0000031,-0000102,+0004151,-0000758,+0000470,-0002337,15:01:07.568813
0.150131,-0000003,-0000015,-0000021,+0000018,-0000117,+0004154,-0000758,+0000470,-0002337,15:01:07.568813
0.150464,+0000010,-0000013,-0000013,+0000015,-0000077,+0004178,-0000748,+0000474,-0002331,15:01:07.568813
0.150797,+0000007,-0000016,-0000008,+0000017,-0000077,+0004137,-0000748,+0000474,-0002331,15:01:07.568813
0.151130,+0000013,-0000021,-0000018,+0000023,-0000089,+0004137,-0000748,+0000474,-0002331,15:01:07.568813
0.151463,+0000027,-0000037,-0000005,+0000011,-0000074,+0004162,-0000752,+0000478,-0002343,15:01:07.568813
0.151796,+0000000,-0000024,-0000016,+0000019,-0000069,+0004150,-0000752,+0000478,-0002343,15:01:07.568813
0.152129,+0000008,-0000020,-0000005,+0000010,-0000103,+0004164,-0000752,+0000478,-0002343,15:01:07.568813
0.152462,+0000000,-0000010,-0000002,+0000029,-0000067,+0004127,-0000754,+0000482,-0002343,15:01:07.568813
0.152795,+0000017,-0000024,-0000008,+0000025,-0000093,+0004143,-0000754,+0000482,-0002343,15:01:07.568813
0.153128,+0000022,-0000024,-0000006,+0000035,-0000098,+0004149,-0000754,+0000482,-0002343,15:01:07.568813
0.153461,+0000025,-0000031,-0000011,+0000022,-0000079,+0004153,-0000758,+0000482,-0002341,15:01:07.568813
0.153794,+0000002,-0000010,-0000008,+0000035,-0000080,+0004178,-0000758,+0000482,-0002341,15:01:07.568813
0.154127,+0000014,-0000018,-0000008,+0000011,-0000078,+0004147,-0000758,+0000482,-0002341,15:01:07.568813
0.154460,+0000010,-0000004,+0000000,+0000014,-0000081,+0004147,-0000756,+0000460,-0002341,15:01:07.575812
0.154793,+0000006,-0000034,-0000002,+0000038,-0000086,+0004144,-0000756,+0000460,-0002341,15:01:07.575812
0.155126,+0000028,-0000034,-0000013,+0000012,-0000077,+0004161,-0000756,+0000460,-0002341,15:01:07.581833
0.155459,+0000016,-0000034,-0000005,+0000002,-0000095,+0004169,-0000748,+0000464,-0002358,15:01:07.583812
0.155792,+0000024,-0000021,-0000011,+0000041,-0000074,+0004154,-0000748,+0000464,-0002358,15:01:07.583812
0.156125,+0000010,-0000002,+0000001,+0000016,-0000078,+0004148,-0000748,+0000464,-0002358,15:01:07.583812
0.156458,+0000009,-0000011,-0000013,+0000020,-0000081,+0004155,-0000764,+0000464,-0002382,15:01:07.583812
0.156791,+0000025,-0000030,-0000005,-0000001,-0000096,+0004150,-0000764,+0000464,-0002382,15:01:07.583812
0.157124,+0000022,-0000028,+0000001,+0000023,-0000084,+0004154,-0000764,+0000464,-0002382,15:01:07.587832
0.157457,+0000028,-0000034,-0000014,+0000013,-0000116,+0004135,-0000768,+0000462,-0002356,15:01:07.592817
0.157790,+0000009,-0000026,-0000011,+0000022,-0000099,+0004130,-0000768,+0000462,-0002356,15:01:07.592817
0.158123,+0000006,-0000018,-0000007,+0000017,-0000086,+0004155,-0000768,+0000462,-0002356,15:01:07.592817
0.158459,+0000013,-0000026,-0000002,+0000027,-0000111,+0004149,-0000758,+0000456,-0002353,15:01:07.592817
0.158789,+0000021,-0000023,-0000007,+0000022,-0000080,+0004164,-0000758,+0000456,-0002353,15:01:07.592817
0.159122,+0000016,-0000034,-0000010,+0000024,-0000060,+0004145,-0000758,+0000456,-0002353,15:01:07.592817
0.159485,+0000007,-0000021,-0000013,+0000014,-0000068,+0004153,-0000752,+0000474,-0002366,15:01:07.592817
0.159788,+0000011,-0000019,-0000018,+0000029,-0000094,+0004174,-0000752,+0000474,-0002366,15:01:07.592817
0.160121,+0000011,-0000015,+0000005,+0000026,-0000075,+0004154,-0000752,+0000474,-0002366,15:01:07.592817
0.160454,+0000013,-0000018,-0000014,+0000018,-0000064,+0004153,-0000740,+0000468,-0002332,15:01:07.592817
0.160788,+0000022,-0000026,+0000000,+0000024,-0000071,+0004149,-0000740,+0000468,-0002332,15:01:07.592817
0.161398,+0000015,-0000016,-0000005,+0000026,-0000102,+0004146,-0000740,+0000468,-0002332,15:01:07.592817
0.161603,+0000015,-0000016,-0000005,+0000026,-0000102,+0004146,-0000754,+0000468,-0002372,15:01:07.592817
0.161831,+0000019,-0000015,-0000010,+0000020,-0000082,+0004165,-0000754,+0000468,-0002372,15:01:07.592817
0.162121,+0000000,-0000043,-0000007,+0000012,-0000075,+0004132,-0000754,+0000468,-0002372,15:01:07.592817
0.162455,+0000018,-0000020,-0000003,+0000038,-0000089,+0004135,-0000754,+0000474,-0002312,15:01:07.592817
0.162785,+0000024,-0000037,-0000010,+0000050,-0000089,+0004136,-0000754,+0000474,-0002312,15:01:07.592817
0.163118,+0000021,-0000034,-0000010,+0000033,-0000098,+0004158,-0000754,+0000474,-0002312,15:01:07.592817
0.163451,+0000013,-0000024,-0000002,+0000026,-0000091,+0004138,-0000756,+0000480,-0002367,15:01:07.592817
0.163785,+0000021,-0000022,-0000018,+0000005,-0000086,+0004137,-0000756,+0000480,-0002367,15:01:07.592817
0.164118,-0000009,-0000007,-0000002,+0000012,-0000060,+0004140,-0000756,+0000480,-0002367,15:01:07.592817
0.164451,+0000019,-0000026,+0000002,+0000019,-0000093,+0004153,-0000758,+0000478,-0002350,15:01:07.592817
0.164784,+0000031,-0000035,-0000016,+0000012,-0000102,+0004145,-0000758,+0000478,-0002350,15:01:07.592817
0.165116,+0000019,-0000034,-0000018,+0000027,-0000094,+0004155,-0000758,+0000478,-0002350,15:01:07.592817
0.165449,+0000024,-0000016,-0000008,+0000016,-0000111,+0004139,-0000754,+0000460,-0002348,15:01:07.592817
0.165782,+0000000,-0000018,-0000007,+0000022,-0000088,+0004150,-0000754,+0000460,-0002348,15:01:07.592817
0.166115,+0000016,-0000029,-0000014,+0000025,-0000086,+0004141,-0000754,+0000460,-0002348,15:01:07.592817
0.166448,+0000022,-0000015,-0000015,+0000035,-0000085,+0004160,-0000744,+0000480,-0002352,15:01:07.592817
0.166781,+0000002,-0000033,-0000004,+0000017,-0000087,+0004157,-0000744,+0000480,-0002352,15:01:07.592817
0.167114,+0000033,-0000021,-0000015,+0000036,-0000067,+0004151,-0000744,+0000480,-0002352,15:01:07.592817
0.167447,+0000012,-0000024,-0000007,+0000027,-0000082,+0004146,-0000762,+0000472,-0002332,15:01:07.592817
0.167780,+0000000,-0000010,-0000010,+0000011,-0000088,+0004173,-0000762,+0000472,-0002332,15:01:07.593814
0.168113,-0000006,-0000014,+0000003,+0000028,-0000071,+0004136,-0000762,+0000472,-0002332,15:01:07.593814
0.168446,+0000016,-0000031,-0000013,+0000024,-0000074,+0004149,-0000760,+0000466,-0002343,15:01:07.593814
0.168779,+0000024,-0000032,-0000013,+0000017,-0000076,+0004164,-0000760,+0000466,-0002343,15:01:07.593814
0.169112,+0000027,-0000029,-0000010,+0000015,-0000088,+0004146,-0000760,+0000466,-0002343,15:01:07.593814
0.169445,+0000003,-0000021,-0000010,+0000040,-0000084,+0004152,-0000746,+0000478,-0002363,15:01:07.593814
0.169778,+0000000,-0000007,-0000013,+0000010,-0000074,+0004160,-0000746,+0000478,-0002363,15:01:07.593814
0.170111,+0000005,-0000019,+0000004,+0000025,-0000076,+0004159,-0000746,+0000478,-0002363,15:01:07.593814
0.170444,+0000018,-0000035,-0000014,+0000001,-0000080,+0004154,-0000746,+0000474,-0002340,15:01:07.593814
0.170790,+0000027,-0000037,-0000008,+0000024,-0000074,+0004151,-0000746,+0000474,-0002340,15:01:07.593814
0.171110,+0000022,-0000029,-0000011,+0000016,-0000082,+0004157,-0000746,+0000474,-0002340,15:01:07.593814
0.171443,+0000002,-0000015,-0000013,+0000023,-0000075,+0004177,-0000766,+0000462,-0002345,15:01:07.593814
0.171789,+0000016,-0000013,-0000005,+0000034,-0000070,+0004149,-0000766,+0000462,-0002345,15:01:07.593814
0.172109,+0000021,-0000021,-0000006,+0000022,-0000085,+0004146,-0000766,+0000462,-0002345,15:01:07.593814
0.172442,+0000011,-0000034,-0000006,+0000022,-0000101,+0004160,-0000744,+0000466,-0002348,15:01:07.593814
0.172788,+0000035,-0000042,-0000024,+0000010,-0000070,+0004163,-0000744,+0000466,-0002348,15:01:07.593814
0.173108,+0000019,+0000006,+0000007,+0000012,-0000068,+0004148,-0000744,+0000466,-0002348,15:01:07.593814
0.173441,-0000008,-0000010,+0000004,+0000034,-0000065,+0004172,-0000764,+0000464,-0002344,15:01:07.593814
0.173787,+0000002,-0000012,-0000013,+0000013,-0000082,+0004155,-0000764,+0000464,-0002344,15:01:07.593814
0.174107,+0000009,-0000029,-0000005,+0000044,-0000065,+0004144,-0000764,+0000464,-0002344,15:01:07.593814
0.174440,+0000036,-0000047,-0000011,+0000045,-0000095,+0004153,-0000758,+0000470,-0002347,15:01:07.593814
0.174786,+0000011,-0000031,+0000001,+0000030,-0000087,+0004154,-0000758,+0000470,-0002347,15:01:07.593814
0.175106,+0000007,-0000002,-0000016,+0000017,-0000075,+0004181,-0000758,+0000470,-0002347,15:01:07.593814
0.175439,+0000003,-0000013,-0000005,+0000024,-0000079,+0004190,-0000744,+0000484,-0002354,15:01:07.593814
0.175785,+0000002,-0000010,-0000008,+0000019,-0000085,+0004169,-0000744,+0000484,-0002354,15:01:07.593814
0.176105,+0000013,-0000029,-0000004,+0000022,-0000090,+0004162,-0000744,+0000484,-0002354,15:01:07.593814
0.176438,+0000024,-0000034,-0000007,+0000013,-0000088,+0004172,-0000760,+0000462,-0002359,15:01:07.593814
0.176774,+0000025,-0000035,-0000018,+0000021,-0000081,+0004139,-0000760,+0000462,-0002359,15:01:07.593814
0.177104,+0000003,-0000016,-0000002,+0000029,-0000072,+0004145,-0000760,+0000462,-0002359,15:01:07.593814
0.177437,+0000002,-0000007,-0000015,+0000022,-0000078,+0004150,-0000760,+0000470,-0002350,15:01:07.593814
0.177770,-0000003,-0000019,-0000008,+0000018,-0000092,+0004158,-0000760,+0000470,-0002350,15:01:07.593814
0.178103,+0000021,-0000015,-0000005,+0000041,-0000080,+0004153,-0000760,+0000470,-0002350,15:01:07.593814
0.178436,+0000033,-0000039,-0000013,+0000016,-0000070,+0004139,-0000760,+0000470,-0002362,15:01:07.593814
0.178769,+0000013,-0000034,-0000008,+0000024,-0000089,+0004135,-0000760,+0000470,-0002362,15:01:07.593814
0.179102,+0000013,-0000016,-0000007,+0000008,-0000059,+0004124,-0000760,+0000470,-0002362,15:01:07.593814
0.179435,+0000007,-0000023,-0000014,+0000032,-0000083,+0004135,-0000760,+0000464,-0002344,15:01:07.593814
0.179768,+0000014,-0000019,-0000010,+0000032,-0000068,+0004148,-0000760,+0000464,-0002344,15:01:07.593814
0.180101,+0000022,-0000029,-0000021,+0000027,-0000079,+0004135,-0000760,+0000464,-0002344,15:01:07.593814
0.180434,+0000013,-0000028,-0000007,+0000033,-0000088,+0004149,-0000756,+0000474,-0002351,15:01:07.593814
0.180767,+0000027,-0000032,-0000011,+0000022,-0000076,+0004154,-0000756,+0000474,-0002351,15:01:07.593814
0.181100,+0000010,-0000019,-0000005,+0000020,-0000076,+0004151,-0000756,+0000474,-0002351,15:01:07.593814
0.181433,+0000013,-0000013,-0000010,+0000024,-0000102,+0004127,-0000758,+0000472,-0002328,15:01:07.593814
0.181766,-0000006,-0000015,+0000003,+0000018,-0000097,+0004147,-0000758,+0000472,-0002328,15:01:07.593814
0.182099,+0000011,-0000029,-0000007,+0000034,-0000106,+0004134,-0000758,+0000472,-0002328,15:01:07.593814
0.182432,+0000028,-0000045,-0000007,+0000021,-0000090,+0004140,-0000752,+0000460,-0002370,15:01:07.593814
0.182765,+0000011,-0000021,-0000008,+0000022,-0000100,+0004128,-0000752,+0000460,-0002370,15:01:07.593814
0.183098,+0000028,-0000040,-0000023,+0000036,-0000089,+0004138,-0000752,+0000460,-0002370,15:01:07.593814
0.183431,+0000011,-0000007,-0000010,+0000008,-0000080,+0004138,-0000756,+0000466,-0002342,15:01:07.593814
0.183764,+0000030,-0000013,-0000004,+0000020,-0000098,+0004151,-0000756,+0000466,-0002342,15:01:07.593814
0.184097,+0000013,-0000034,-0000019,+0000018,-0000087,+0004156,-0000756,+0000466,-0002342,15:01:07.593814
0.184430,+0000032,-0000039,-0000005,+0000030,-0000082,+0004166,-0000766,+0000468,-0002341,15:01:07.593814
0.184763,+0000021,-0000029,-0000010,+0000013,-0000096,+0004149,-0000766,+0000468,-0002341,15:01:07.593814
0.185096,-0000001,-0000013,-0000008,+0000002,-0000077,+0004139,-0000766,+0000468,-0002341,15:01:07.593814
0.185429,+0000005,-0000010,+0000000,+0000020,-0000076,+0004144,-0000750,+0000488,-0002350,15:01:07.593814
0.185762,+0000013,-0000021,-0000010,+0000026,-0000083,+0004144,-0000750,+0000488,-0002350,15:01:07.593814
0.186095,+0000010,-0000024,-0000004,+0000014,-0000075,+0004155,-0000750,+0000488,-0002350,15:01:07.593814
0.186429,+0000038,-0000050,-0000018,+0000001,-0000084,+0004142,-0000768,+0000474,-0002349,15:01:07.593814
0.186762,+0000013,-0000012,+0000001,+0000004,-0000089,+0004161,-0000768,+0000474,-0002349,15:01:07.593814
0.187094,+0000010,-0000013,-0000022,+0000014,-0000071,+0004147,-0000768,+0000474,-0002349,15:01:07.593814
0.187427,-0000003,-0000011,+0000003,+0000032,-0000070,+0004152,-0000758,+0000472,-0002367,15:01:07.593814
0.187760,+0000028,-0000019,-0000014,+0000005,-0000086,+0004162,-0000758,+0000472,-0002367,15:01:07.593814
0.188093,+0000016,-0000032,-0000009,+0000038,-0000092,+0004163,-0000758,+0000472,-0002367,15:01:07.593814
0.188426,+0000025,-0000013,-0000008,+0000032,-0000055,+0004139,-0000750,+0000480,-0002348,15:01:07.593814
0.188759,+0000012,-0000025,-0000015,+0000018,-0000085,+0004141,-0000750,+0000480,-0002348,15:01:07.593814
0.189092,-0000003,-0000013,-0000002,+0000023,-0000070,+0004174,-0000750,+0000480,-0002348,15:01:07.593814
0.189425,+0000013,-0000018,-0000005,+0000023,-0000092,+0004152,-0000750,+0000474,-0002339,15:01:07.593814
0.189758,+0000016,-0000021,-0000015,+0000001,-0000097,+0004167,-0000750,+0000474,-0002339,15:01:07.593814
0.190091,+0000024,-0000031,-0000010,+0000033,-0000079,+0004161,-0000750,+0000474,-0002339,15:01:07.593814
0.190424,+0000021,-0000032,-0000008,+0000018,-0000083,+0004160,-0000736,+0000490,-0002350,15:01:07.593814
0.190757,+0000019,-0000032,-0000010,+0000027,-0000085,+0004154,-0000736,+0000490,-0002350,15:01:07.593814
0.191090,+0000013,-0000021,-0000013,+0000031,-0000080,+0004145,-0000736,+0000490,-0002350,15:01:07.593814
0.191423,-0000006,-0000008,+0000006,+0000042,-0000071,+0004158,-0000754,+0000490,-0002322,15:01:07.593814
0.191756,+0000013,-0000024,-0000011,+0000030,-0000103,+0004174,-0000754,+0000490,-0002322,15:01:07.593814
0.192091,+0000019,-0000029,-0000002,+0000028,-0000094,+0004149,-0000754,+0000490,-0002322,15:01:07.593814
0.192422,+0000017,-0000031,-0000011,+0000032,-0000073,+0004141,-0000756,+0000462,-0002345,15:01:07.593814
0.192760,-0000001,-0000004,-0000005,+0000031,-0000062,+0004127,-0000756,+0000462,-0002345,15:01:07.593814
0.193355,-0000005,-0000011,+0000001,+0000018,-0000094,+0004153,-0000756,+0000462,-0002345,15:01:07.593814
0.193564,+0000010,-0000007,-0000005,+0000018,-0000094,+0004153,-0000764,+0000470,-0002304,15:01:07.593814
0.193791,+0000007,-0000003,-0000008,+0000013,-0000103,+0004143,-0000764,+0000470,-0002304,15:01:07.593814
0.194297,+0000025,-0000028,-0000008,+0000011,-0000091,+0004147,-0000764,+0000470,-0002304,15:01:07.593814
0.194486,+0000025,-0000028,-0000008,+0000011,-0000091,+0004147,-0000760,+0000470,-0002304,15:01:07.593814
0.194754,-0000006,-0000010,+0000003,+0000025,-0000083,+0004149,-0000760,+0000470,-0002304,15:01:07.593814
0.195115,+0000017,-0000010,-0000010,+0000034,-0000089,+0004143,-0000760,+0000470,-0002304,15:01:07.593814
0.195419,-0000001,+0000001,-0000003,+0000008,-0000080,+0004130,-0000758,+0000462,-0002322,15:01:07.593814
0.195808,+0000016,-0000018,-0000004,+0000012,-0000086,+0004148,-0000758,+0000462,-0002322,15:01:07.593814
0.196238,+0000013,-0000012,-0000008,+0000012,-0000081,+0004163,-0000758,+0000462,-0002322,15:01:07.593814
0.196418,+0000013,-0000012,-0000008,+0000012,-0000081,+0004163,-0000750,+0000452,-0002365,15:01:07.593814
0.196763,+0000008,-0000023,-0000007,+0000005,-0000114,+0004148,-0000750,+0000452,-0002365,15:01:07.593814
0.197087,+0000008,-0000015,-0000013,+0000012,-0000089,+0004149,-0000750,+0000452,-0002365,15:01:07.593814
0.197420,+0000014,-0000031,-0000004,+0000013,-0000099,+0004165,-0000760,+0000466,-0002339,15:01:07.593814
0.197750,+0000021,-0000048,-0000016,+0000021,-0000093,+0004170,-0000760,+0000466,-0002339,15:01:07.593814
0.198084,+0000010,-0000025,+0000000,+0000025,-0000075,+0004136,-0000760,+0000466,-0002339,15:01:07.593814
0.198416,+0000027,-0000048,-0000019,+0000009,-0000074,+0004159,-0000756,+0000454,-0002330,15:01:07.593814
0.198749,+0000008,-0000010,-0000011,+0000024,-0000064,+0004166,-0000756,+0000454,-0002330,15:01:07.593814
0.199082,+0000005,-0000018,-0000003,+0000024,-0000095,+0004147,-0000756,+0000454,-0002330,15:01:07.593814
0.199417,+0000014,-0000018,-0000013,+0000019,-0000096,+0004135,-0000756,+0000492,-0002333,15:01:07.593814
0.199750,+0000016,-0000018,+0000001,+0000026,-0000110,+0004156,-0000756,+0000492,-0002333,15:01:07.593814
0.200082,+0000038,-0000031,-0000008,+0000032,-0000085,+0004162,-0000756,+0000492,-0002333,15:01:07.593814
0.200420,-0000001,-0000012,-0000005,+0000017,-0000081,+0004171,-0000770,+0000468,-0002323,15:01:07.593814
0.200748,+0000016,-0000033,-0000008,+0000028,-0000088,+0004153,-0000770,+0000468,-0002323,15:01:07.593814
0.201080,+0000030,-0000024,+0000003,+0000021,-0000084,+0004153,-0000770,+0000468,-0002323,15:01:07.593814
0.201413,+0000010,-0000024,-0000007,+0000008,-0000061,+0004177,-0000758,+0000482,-0002350,15:01:07.593814
0.201746,+0000016,-0000023,-0000003,+0000042,-0000052,+0004146,-0000758,+0000482,-0002350,15:01:07.593814
0.202079,+0000022,-0000007,-0000011,+0000027,-0000078,+0004148,-0000758,+0000482,-0002350,15:01:07.593814
0.202412,+0000019,-0000013,-0000007,+0000024,-0000078,+0004186,-0000748,+0000480,-0002337,15:01:07.593814
0.202745,+0000013,-0000020,-0000010,+0000035,-0000086,+0004151,-0000748,+0000480,-0002337,15:01:07.593814
0.203078,+0000007,-0000002,+0000001,+0000025,-0000071,+0004152,-0000748,+0000480,-0002337,15:01:07.593814
0.203411,+0000019,-0000029,-0000014,+0000012,-0000079,+0004164,-0000752,+0000464,-0002358,15:01:07.593814
0.203744,+0000011,-0000031,-0000016,+0000018,-0000081,+0004175,-0000752,+0000464,-0002358,15:01:07.593814
0.204077,+0000027,-0000032,-0000014,+0000022,-0000082,+0004152,-0000752,+0000464,-0002358,15:01:07.593814
0.204410,+0000005,-0000015,-0000005,+0000014,-0000096,+0004142,-0000770,+0000466,-0002345,15:01:07.593814
0.204743,+0000021,-0000024,-0000005,+0000011,-0000101,+0004161,-0000770,+0000466,-0002345,15:01:07.593814
0.205076,+0000005,-0000007,-0000007,+0000006,-0000081,+0004178,-0000770,+0000466,-0002345,15:01:07.593814
0.205409,+0000016,-0000026,-0000011,+0000036,-0000076,+0004174,-0000752,+0000496,-0002361,15:01:07.593814
0.205742,+0000013,-0000034,-0000003,+0000029,-0000084,+0004161,-0000752,+0000496,-0002361,15:01:07.593814
0.206075,+0000022,-0000032,-0000013,+0000015,-0000078,+0004178,-0000752,+0000496,-0002361,15:01:07.593814
0.206408,+0000016,-0000021,-0000015,+0000012,-0000083,+0004167,-0000770,+0000474,-0002339,15:01:07.593814
0.206741,+0000021,-0000020,-0000014,+0000027,-0000079,+0004140,-0000770,+0000474,-0002339,15:01:07.593814
0.207074,-0000009,-0000023,-0000003,+0000001,-0000074,+0004150,-0000770,+0000474,-0002339,15:01:07.593814
0.207407,+0000001,-0000017,+0000011,+0000006,-0000063,+0004148,-0000764,+0000468,-0002351,15:01:07.593814
0.207740,+0000016,-0000039,-0000016,+0000016,-0000076,+0004152,-0000764,+0000468,-0002351,15:01:07.593814
0.208073,+0000027,-0000022,-0000011,+0000025,-0000075,+0004156,-0000764,+0000468,-0002351,15:01:07.593814
0.208406,+0000018,-0000026,-0000010,+0000010,-0000080,+0004162,-0000760,+0000462,-0002340,15:01:07.593814
0.208739,-0000006,-0000010,+0000008,+0000007,-0000080,+0004156,-0000760,+0000462,-0002340,15:01:07.593814
0.209072,+0000007,+0000004,-0000004,+0000022,-0000103,+0004160,-0000760,+0000462,-0002340,15:01:07.593814
0.209405,+0000013,-0000038,-0000003,+0000016,-0000078,+0004144,-0000764,+0000446,-0002341,15:01:07.593814
0.209738,+0000030,-0000032,-0000015,+0000021,-0000091,+0004147,-0000764,+0000446,-0002341,15:01:07.593814
0.210071,+0000014,-0000038,+0000000,+0000041,-0000062,+0004144,-0000764,+0000446,-0002341,15:01:07.593814
0.210404,+0000024,-0000024,-0000008,+0000019,-0000094,+0004145,-0000764,+0000464,-0002343,15:01:07.593814
0.210737,+0000014,-0000007,-0000005,+0000024,-0000082,+0004137,-0000764,+0000464,-0002343,15:01:07.595812
0.211070,+0000000,-0000023,-0000006,+0000033,-0000099,+0004165,-0000764,+0000464,-0002343,15:01:07.595812
0.211403,+0000027,-0000026,-0000005,+0000008,-0000095,+0004154,-0000746,+0000466,-0002347,15:01:07.595812
0.211736,+0000016,-0000040,-0000010,+0000009,-0000098,+0004144,-0000746,+0000466,-0002347,15:01:07.595812
0.212069,+0000020,-0000023,-0000013,+0000026,-0000073,+0004169,-0000746,+0000466,-0002347,15:01:07.595812
0.212402,+0000006,-0000018,-0000007,+0000017,-0000094,+0004124,-0000764,+0000470,-0002326,15:01:07.595812
0.212735,+0000007,-0000024,+0000000,+0000040,-0000084,+0004168,-0000764,+0000470,-0002326,15:01:07.595812
0.213068,+0000018,-0000018,-0000012,+0000018,-0000076,+0004140,-0000764,+0000470,-0002326,15:01:07.595812
0.213401,+0000010,-0000024,-0000010,-0000002,-0000082,+0004128,-0000760,+0000470,-0002360,15:01:07.595812
0.213734,+0000024,-0000047,-0000013,+0000017,-0000100,+0004137,-0000760,+0000470,-0002360,15:01:07.595812
0.214067,+0000020,-0000018,-0000011,+0000004,-0000076,+0004161,-0000760,+0000470,-0002360,15:01:07.595812
0.214400,+0000003,-0000007,-0000003,+0000008,-0000081,+0004144,-0000760,+0000460,-0002352,15:01:07.595812
0.214733,+0000007,-0000021,-0000010,+0000032,-0000103,+0004156,-0000760,+0000460,-0002352,15:01:07.595812
0.215066,+0000015,-0000021,-0000008,+0000007,-0000092,+0004132,-0000760,+0000460,-0002352,15:01:07.595812
0.215399,+0000019,-0000034,-0000005,+0000014,-0000066,+0004166,-0000742,+0000480,-0002330,15:01:07.595812
0.215732,+0000029,-0000032,-0000015,+0000025,-0000093,+0004155,-0000742,+0000480,-0002330,15:01:07.595812
0.216065,+0000016,-0000027,-0000007,+0000017,-0000071,+0004160,-0000742,+0000480,-0002330,15:01:07.595812
0.216398,-0000001,-0000007,-0000015,+0000016,-0000103,+0004143,-0000742,+0000472,-0002339,15:01:07.595812
0.216731,+0000008,-0000010,-0000007,+0000015,-0000132,+0004151,-0000742,+0000472,-0002339,15:01:07.595812
0.217064,+0000011,-0000026,-0000002,+0000029,-0000087,+0004158,-0000742,+0000472,-0002339,15:01:07.595812
0.217397,+0000024,-0000042,-0000014,+0000009,-0000079,+0004131,-0000756,+0000464,-0002328,15:01:07.595812
0.217730,+0000020,-0000029,-0000010,+0000015,-0000079,+0004147,-0000756,+0000464,-0002328,15:01:07.595812
0.218063,+0000017,-0000021,-0000010,+0000021,-0000090,+0004136,-0000756,+0000464,-0002328,15:01:07.595812
0.218639,+0000011,+0000001,-0000010,+0000007,-0000069,+0004159,-0000752,+0000470,-0002351,15:01:07.595812
0.218933,-0000005,-0000016,+0000006,+0000025,-0000099,+0004167,-0000752,+0000470,-0002351,15:01:07.595812
0.219067,-0000005,-0000016,-0000006,+0000016,-0000081,+0004177,-0000752,+0000470,-0002351,15:01:07.595812
0.219395,+0000022,-0000056,-0000007,+0000011,-0000081,+0004150,-0000758,+0000448,-0002336,15:01:07.595812
0.219728,+0000016,-0000026,-0000012,+0000022,-0000082,+0004150,-0000758,+0000448,-0002336,15:01:07.595812
0.220061,+0000004,-0000028,-0000008,+0000024,-0000087,+0004163,-0000758,+0000448,-0002336,15:01:07.595812
0.220394,+0000021,-0000018,-0000013,+0000026,-0000068,+0004123,-0000762,+0000474,-0002352,15:01:07.595812
0.220727,+0000002,-0000008,-0000002,+0000022,-0000084,+0004153,-0000762,+0000474,-0002352,15:01:07.595812
0.221060,+0000008,-0000015,-0000010,+0000013,-0000089,+0004132,-0000762,+0000474,-0002352,15:01:07.595812
0.221393,+0000019,-0000043,-0000011,+0000013,-0000097,+0004141,-0000756,+0000470,-0002329,15:01:07.595812
0.221726,+0000027,-0000021,-0000005,+0000032,-0000093,+0004150,-0000756,+0000470,-0002329,15:01:07.595812
0.222059,+0000003,-0000032,-0000016,+0000030,-0000080,+0004152,-0000756,+0000470,-0002329,15:01:07.595812
0.222392,+0000018,-0000014,-0000008,+0000010,-0000080,+0004168,-0000756,+0000464,-0002351,15:01:07.595812
0.222725,+0000003,-0000021,-0000011,+0000020,-0000089,+0004163,-0000756,+0000464,-0002351,15:01:07.595812
0.223058,+0000008,-0000023,-0000010,+0000032,-0000097,+0004149,-0000756,+0000464,-0002351,15:01:07.595812
0.223391,+0000013,-0000040,-0000008,+0000019,-0000076,+0004169,-0000754,+0000466,-0002335,15:01:07.595812
0.223724,+0000020,-0000039,-0000018,+0000026,-0000094,+0004154,-0000754,+0000466,-0002335,15:01:07.595812
0.224057,+0000008,-0000013,+0000008,+0000022,-0000095,+0004171,-0000754,+0000466,-0002335,15:01:07.595812
0.224390,-0000004,+0000003,-0000002,+0000013,-0000053,+0004152,-0000736,+0000470,-0002328,15:01:07.595812
0.224723,+0000003,-0000018,-0000010,+0000024,-0000075,+0004135,-0000736,+0000470,-0002328,15:01:07.595812
0.225056,+0000019,-0000034,-0000010,+0000017,-0000092,+0004168,-0000736,+0000470,-0002328,15:01:07.595812
0.225389,+0000029,-0000035,-0000005,+0000025,-0000092,+0004159,-0000744,+0000462,-0002343,15:01:07.595812
0.225722,+0000024,-0000042,-0000019,+0000021,-0000094,+0004146,-0000744,+0000462,-0002343,15:01:07.595812
0.226055,+0000003,-0000017,-0000010,+0000031,-0000072,+0004152,-0000744,+0000462,-0002343,15:01:07.595812
0.226388,+0000011,-0000005,-0000008,+0000017,-0000091,+0004160,-0000750,+0000462,-0002330,15:01:07.595812
0.226721,+0000014,-0000021,-0000011,+0000005,-0000094,+0004149,-0000750,+0000462,-0002330,15:01:07.595812
0.227054,+0000005,-0000034,+0000000,+0000050,-0000074,+0004168,-0000750,+0000462,-0002330,15:01:07.595812
0.227387,+0000028,-0000039,-0000019,+0000026,-0000058,+0004163,-0000764,+0000460,-0002334,15:01:07.595812
0.227720,+0000014,-0000024,-0000027,+0000003,-0000083,+0004159,-0000764,+0000460,-0002334,15:01:07.595812
0.228053,+0000013,-0000009,+0000000,+0000018,-0000088,+0004164,-0000764,+0000460,-0002334,15:01:07.595812
0.228386,-0000008,-0000005,-0000015,+0000011,-0000071,+0004152,-0000752,+0000472,-0002345,15:01:07.595812
0.228719,+0000024,-0000031,-0000003,+0000015,-0000076,+0004155,-0000752,+0000472,-0002345,15:01:07.597016
0.229052,+0000008,-0000021,-0000018,+0000003,-0000072,+0004136,-0000752,+0000472,-0002345,15:01:07.597016
0.229385,+0000028,-0000023,-0000008,+0000016,-0000081,+0004161,-0000756,+0000476,-0002313,15:01:07.597016
0.229718,+0000017,-0000011,-0000016,+0000034,-0000080,+0004147,-0000756,+0000476,-0002313,15:01:07.597016
0.230051,+0000014,-0000024,+0000001,+0000005,-0000088,+0004153,-0000756,+0000476,-0002313,15:01:07.597016
0.230384,+0000005,+0000000,-0000013,+0000022,-0000096,+0004149,-0000768,+0000456,-0002319,15:01:07.597016
0.230717,+0000011,-0000006,-0000002,+0000030,-0000082,+0004138,-0000768,+0000456,-0002319,15:01:07.597016
0.231050,+0000016,-0000039,+0000000,+0000029,-0000081,+0004139,-0000768,+0000456,-0002319,15:01:07.597016
0.231383,+0000022,-0000034,-0000008,+0000033,-0000073,+0004150,-0000750,+0000466,-0002318,15:01:07.597016
0.231716,+0000010,-0000025,-0000015,+0000021,-0000092,+0004125,-0000750,+0000466,-0002318,15:01:07.597016
0.232049,+0000005,-0000005,-0000005,+0000014,-0000100,+0004121,-0000750,+0000466,-0002318,15:01:07.597016
0.232382,+0000004,-0000019,-0000014,+0000023,-0000088,+0004127,-0000756,+0000458,-0002355,15:01:07.597016
0.232715,+0000016,-0000021,-0000011,+0000016,-0000086,+0004135,-0000756,+0000458,-0002355,15:01:07.597016
0.233048,+0000011,-0000032,+0000001,+0000024,-0000087,+0004159,-0000756,+0000458,-0002355,15:01:07.597016
0.233381,+0000038,-0000027,-0000010,+0000020,-0000071,+0004144,-0000750,+0000468,-0002340,15:01:07.597016
0.233714,+0000016,-0000039,-0000022,+0000036,-0000091,+0004164,-0000750,+0000468,-0002340,15:01:07.597016
0.234047,+0000014,-0000012,+0000006,+0000018,-0000089,+0004156,-0000750,+0000468,-0002340,15:01:07.597016
0.234380,+0000016,-0000007,-0000016,+0000043,-0000098,+0004158,-0000750,+0000462,-0002359,15:01:07.597016
0.234713,+0000017,-0000021,-0000008,+0000026,-0000108,+0004160,-0000750,+0000462,-0002359,15:01:07.597016
0.235046,+0000005,-0000029,-0000011,+0000020,-0000089,+0004138,-0000750,+0000462,-0002359,15:01:07.597016
0.235379,+0000019,-0000032,-0000013,+0000015,-0000097,+0004147,-0000762,+0000478,-0002363,15:01:07.597016
0.235712,+0000011,-0000027,-0000012,+0000016,-0000098,+0004173,-0000762,+0000478,-0002363,15:01:07.597016
0.236045,+0000002,-0000020,-0000010,+0000007,-0000078,+0004159,-0000762,+0000478,-0002363,15:01:07.597016
0.236378,+0000006,-0000013,-0000008,+0000024,-0000083,+0004150,-0000770,+0000468,-0002345,15:01:07.597016
0.236711,+0000017,-0000023,-0000010,+0000025,-0000098,+0004154,-0000770,+0000468,-0002345,15:01:07.597016
0.237044,+0000025,-0000056,-0000016,+0000027,-0000077,+0004137,-0000770,+0000468,-0002345,15:01:07.597016
0.237377,+0000003,-0000010,+0000001,+0000006,-0000080,+0004158,-0000770,+0000468,-0002331,15:01:07.597016
0.237710,+0000035,-0000042,-0000021,+0000023,-0000063,+0004153,-0000770,+0000468,-0002331,15:01:07.597016
0.238043,+0000007,-0000003,+0000009,+0000017,-0000063,+0004166,-0000770,+0000468,-0002331,15:01:07.597016
0.238376,+0000013,-0000016,-0000023,+0000033,-0000064,+0004140,-0000746,+0000466,-0002338,15:01:07.597016
0.238709,+0000017,-0000026,+0000001,+0000019,-0000077,+0004162,-0000746,+0000466,-0002338,15:01:07.597016
0.239042,+0000017,-0000040,-0000018,+0000012,-0000087,+0004153,-0000746,+0000466,-0002338,15:01:07.597016
0.239375,+0000025,-0000045,-0000012,+0000026,-0000085,+0004166,-0000768,+0000466,-0002343,15:01:07.597016
0.239708,+0000007,-0000013,+0000004,+0000039,-0000084,+0004160,-0000768,+0000466,-0002343,15:01:07.597016
0.240041,+0000016,-0000019,-0000021,+0000008,-0000069,+0004174,-0000768,+0000466,-0002343,15:01:07.597016
0.240374,+0000013,-0000032,+0000003,+0000021,-0000077,+0004144,-0000766,+0000474,-0002340,15:01:07.597016
0.240707,+0000018,-0000024,-0000018,+0000007,-0000096,+0004146,-0000766,+0000474,-0002340,15:01:07.597016
0.241040,+0000009,-0000032,-0000002,+0000014,-0000116,+0004131,-0000766,+0000474,-0002340,15:01:07.597016
0.241373,+0000020,-0000012,-0000016,+0000013,-0000077,+0004151,-0000766,+0000456,-0002346,15:01:07.597016
0.241706,+0000003,-0000008,+0000002,+0000016,-0000072,+0004172,-0000766,+0000456,-0002346,15:01:07.597016
0.242039,+0000000,-0000011,-0000003,+0000026,-0000074,+0004148,-0000766,+0000456,-0002346,15:01:07.597016
0.242373,+0000024,-0000031,-0000005,+0000049,-0000082,+0004147,-0000776,+0000484,-0002342,15:01:07.597016
0.242709,+0000019,-0000029,+0000000,+0000024,-0000093,+0004152,-0000776,+0000484,-0002342,15:01:07.597016
0.243426,+0000009,-0000024,-0000015,+0000011,-0000080,+0004165,-0000776,+0000484,-0002342,15:01:07.597016
0.243802,-0000001,-0000010,+0000003,+0000030,-0000090,+0004148,-0000774,+0000466,-0002345,15:01:07.597016
0.244057,+0000027,-0000030,-0000011,+0000018,-0000082,+0004148,-0000774,+0000466,-0002345,15:01:07.597016
0.244391,+0000003,-0000032,-0000013,+0000024,-0000085,+0004159,-0000774,+0000466,-0002345,15:01:07.597016
0.244708,+0000014,-0000014,-0000010,+0000014,-0000083,+0004129,-0000748,+0000474,-0002351,15:01:07.597016
0.245037,+0000004,-0000021,+0000007,+0000026,-0000078,+0004145,-0000748,+0000474,-0002351,15:01:07.597016
0.245497,+0000018,-0000022,-0000024,+0000036,-0000079,+0004148,-0000748,+0000474,-0002351,15:01:07.597016
0.245715,+0000011,-0000023,-0000007,+0000019,-0000079,+0004148,-0000746,+0000474,-0002332,15:01:07.597016
0.246035,+0000005,-0000016,-0000007,+0000014,-0000085,+0004163,-0000746,+0000474,-0002332,15:01:07.597016
0.246368,+0000014,-0000026,+0000000,+0000031,-0000093,+0004136,-0000746,+0000474,-0002332,15:01:07.597016
0.246701,+0000027,-0000036,-0000008,+0000017,-0000093,+0004142,-0000748,+0000482,-0002343,15:01:07.597016
0.247067,+0000019,-0000042,-0000018,+0000009,-0000077,+0004132,-0000748,+0000482,-0002343,15:01:07.597016
0.247367,+0000016,-0000026,-0000008,+0000021,-0000081,+0004151,-0000748,+0000482,-0002343,15:01:07.597016
0.247700,+0000013,-0000032,-0000011,+0000033,-0000082,+0004172,-0000758,+0000488,-0002332,15:01:07.597016
0.248033,+0000015,-0000011,-0000013,+0000012,-0000079,+0004145,-0000758,+0000488,-0002332,15:01:07.597016
0.248366,+0000017,-0000026,-0000016,+0000012,-0000086,+0004126,-0000758,+0000488,-0002332,15:01:07.597016
0.248699,+0000014,-0000032,-0000005,+0000049,-0000077,+0004124,-0000780,+0000468,-0002343,15:01:07.597016
0.249032,+0000014,-0000024,-0000010,+0000030,-0000081,+0004133,-0000780,+0000468,-0002343,15:01:07.597016
0.249365,+0000019,-0000035,-0000019,+0000024,-0000104,+0004150,-0000780,+0000468,-0002343,15:01:07.597016
0.249698,+0000013,-0000016,-0000011,+0000014,-0000093,+0004154,-0000756,+0000480,-0002328,15:01:07.597016
0.250031,+0000016,-0000011,+0000006,+0000020,-0000082,+0004128,-0000756,+0000480,-0002328,15:01:07.597016
0.250364,+0000022,-0000024,-0000008,+0000000,-0000088,+0004148,-0000756,+0000480,-0002328,15:01:07.597016
0.250697,+0000025,-0000043,-0000013,+0000003,-0000091,+0004125,-0000746,+0000474,-0002331,15:01:07.597016
0.251030,+0000015,-0000029,+0000000,+0000028,-0000081,+0004136,-0000746,+0000474,-0002331,15:01:07.597016
0.251363,+0000011,-0000028,-0000018,+0000026,-0000088,+0004125,-0000746,+0000474,-0002331,15:01:07.597016
0.251696,+0000002,+0000000,+0000003,+0000006,-0000081,+0004147,-0000756,+0000466,-0002338,15:01:07.597016
0.252029,+0000021,-0000031,-0000008,+0000012,-0000098,+0004178,-0000756,+0000466,-0002338,15:01:07.597016
0.252362,+0000024,-0000018,-0000010,+0000014,-0000083,+0004142,-0000756,+0000466,-0002338,15:01:07.597016
0.252695,+0000019,-0000030,+0000006,+0000000,-0000083,+0004144,-0000750,+0000466,-0002333,15:01:07.597016
0.253028,+0000022,-0000037,-0000021,+0000015,-0000080,+0004136,-0000750,+0000466,-0002333,15:01:07.597016
0.253361,+0000011,-0000020,-0000012,+0000017,-0000087,+0004163,-0000750,+0000466,-0002333,15:01:07.597016
0.253694,+0000010,-0000018,-0000011,+0000016,-0000070,+0004154,-0000762,+0000480,-0002357,15:01:07.597016
0.254027,+0000002,-0000019,+0000001,+0000030,-0000090,+0004146,-0000762,+0000480,-0002357,15:01:07.597016
0.254370,+0000010,-0000040,-0000013,+0000033,-0000073,+0004154,-0000762,+0000480,-0002357,15:01:07.597016
0.254693,+0000045,-0000047,-0000018,+0000002,-0000077,+0004166,-0000738,+0000482,-0002346,15:01:07.597016
0.255026,-0000008,-0000032,-0000016,+0000012,-0000086,+0004171,-0000738,+0000482,-0002346,15:01:07.597016
0.255359,-0000009,-0000010,+0000000,+0000031,-0000072,+0004146,-0000738,+0000482,-0002346,15:01:07.597016
0.255693,-0000001,-0000012,-0000010,+0000029,-0000077,+0004163,-0000760,+0000478,-0002348,15:01:07.597016
0.256025,+0000024,-0000016,-0000011,+0000021,-0000069,+0004162,-0000760,+0000478,-0002348,15:01:07.597016
0.256358,+0000017,-0000028,-0000008,+0000022,-0000080,+0004146,-0000760,+0000478,-0002348,15:01:07.597016
0.256691,+0000018,-0000023,-0000005,+0000023,-0000086,+0004149,-0000752,+0000462,-0002353,15:01:07.597016
0.257024,+0000010,-0000022,-0000007,+0000017,-0000089,+0004175,-0000752,+0000462,-0002353,15:01:07.597016
0.257357,+0000003,-0000008,-0000013,+0000032,-0000083,+0004159,-0000752,+0000462,-0002353,15:01:07.597016
0.257690,+0000000,-0000023,-0000007,+0000026,-0000072,+0004160,-0000748,+0000470,-0002335,15:01:07.597016
0.258023,+0000019,-0000016,-0000013,+0000029,-0000087,+0004173,-0000748,+0000470,-0002335,15:01:07.597016
0.258356,+0000013,-0000029,-0000019,+0000019,-0000083,+0004169,-0000748,+0000470,-0002335,15:01:07.597016
0.258689,+0000007,-0000034,+0000000,+0000018,-0000079,+0004157,-0000758,+0000468,-0002329,15:01:07.597016
0.259022,+0000008,-0000026,-0000021,+0000022,-0000075,+0004155,-0000758,+0000468,-0002329,15:01:07.597016
0.259355,+0000014,-0000012,-0000005,+0000027,-0000089,+0004161,-0000758,+0000468,-0002329,15:01:07.597016
0.259689,+0000002,-0000018,-0000013,+0000030,-0000081,+0004149,-0000746,+0000454,-0002315,15:01:07.597016
0.260021,+0000008,-0000028,-0000011,+0000006,-0000089,+0004154,-0000746,+0000454,-0002315,15:01:07.597016
0.260354,+0000005,-0000029,+0000000,+0000023,-0000095,+0004159,-0000746,+0000454,-0002315,15:01:07.597016
0.260692,+0000027,-0000035,-0000024,+0000012,-0000086,+0004155,-0000768,+0000466,-0002336,15:01:07.597016
0.261020,+0000018,-0000026,-0000003,+0000034,-0000070,+0004141,-0000768,+0000466,-0002336,15:01:07.597016
0.261353,+0000013,-0000024,-0000018,+0000026,-0000082,+0004149,-0000768,+0000466,-0002336,15:01:07.597016
0.261686,+0000013,+0000003,+0000001,+0000019,-0000081,+0004145,-0000756,+0000474,-0002327,15:01:07.597016
0.262020,+0000010,-0000007,-0000013,+0000027,-0000087,+0004172,-0000756,+0000474,-0002327,15:01:07.597016
0.262352,+0000002,-0000030,-0000008,+0000030,-0000079,+0004139,-0000756,+0000474,-0002327,15:01:07.597016
0.262691,+0000025,-0000026,-0000010,+0000024,-0000071,+0004146,-0000744,+0000466,-0002329,15:01:07.597016
0.263023,+0000008,-0000032,-0000013,+0000033,-0000078,+0004130,-0000744,+0000466,-0002329,15:01:07.597016
0.263352,+0000010,-0000026,-0000011,+0000019,-0000090,+0004141,-0000744,+0000466,-0002329,15:01:07.597016
0.263685,+0000018,-0000021,-0000005,+0000022,-0000086,+0004120,-0000758,+0000466,-0002342,15:01:07.597016
0.264017,+0000008,-0000035,-0000007,+0000037,-0000109,+0004142,-0000758,+0000466,-0002342,15:01:07.597016
0.264351,+0000041,-0000032,-0000004,+0000027,-0000091,+0004142,-0000758,+0000466,-0002342,15:01:07.597016
0.264684,+0000010,-0000045,-0000019,+0000014,-0000071,+0004132,-0000744,+0000468,-0002335,15:01:07.597016
0.265018,+0000030,-0000024,-0000008,+0000010,-0000101,+0004158,-0000744,+0000468,-0002335,15:01:07.597016
0.265351,+0000003,+0000008,+0000004,+0000012,-0000083,+0004151,-0000744,+0000468,-0002335,15:01:07.597016
0.265684,+0000000,-0000016,-0000013,-0000002,-0000098,+0004155,-0000754,+0000474,-0002312,15:01:07.597016
0.266017,+0000030,-0000029,-0000003,+0000009,-0000088,+0004142,-0000754,+0000474,-0002312,15:01:07.597016
0.266348,+0000017,-0000030,-0000019,+0000015,-0000081,+0004141,-0000754,+0000474,-0002312,15:01:07.597016
0.266692,+0000022,-0000037,-0000018,-0000001,-0000089,+0004139,-0000758,+0000466,-0002328,15:01:07.597016
0.267014,+0000000,-0000005,+0000000,+0000040,-0000101,+0004172,-0000758,+0000466,-0002328,15:01:07.597016
0.267347,+0000013,-0000023,-0000015,+0000024,-0000094,+0004158,-0000758,+0000466,-0002328,15:01:07.597016
0.267680,+0000011,-0000019,-0000004,+0000013,-0000083,+0004176,-0000758,+0000472,-0002303,15:01:07.597016
0.268013,+0000011,-0000021,-0000005,+0000021,-0000079,+0004158,-0000758,+0000472,-0002303,15:01:07.597016
0.268346,+0000039,-0000045,-0000021,+0000030,-0000077,+0004159,-0000758,+0000472,-0002303,15:01:07.597016
0.268679,+0000016,-0000032,-0000014,+0000011,-0000092,+0004158,-0000748,+0000482,-0002329,15:01:07.597016
0.269012,-0000005,-0000006,-0000008,+0000016,-0000088,+0004170,-0000748,+0000482,-0002329,15:01:07.597016
0.269345,+0000016,-0000014,-0000010,+0000032,-0000071,+0004155,-0000748,+0000482,-0002329,15:01:07.597016
0.269678,-0000003,-0000008,+0000000,+0000017,-0000076,+0004145,-0000754,+0000474,-0002323,15:01:07.597016
0.270011,+0000027,-0000040,-0000008,+0000017,-0000086,+0004158,-0000754,+0000474,-0002323,15:01:07.597016
0.270344,+0000029,-0000013,-0000002,+0000029,-0000069,+0004168,-0000754,+0000474,-0002323,15:01:07.597016
0.270677,+0000008,-0000016,-0000015,+0000018,-0000046,+0004136,-0000742,+0000482,-0002330,15:01:07.597016
0.271010,+0000008,-0000027,-0000011,+0000026,-0000087,+0004149,-0000742,+0000482,-0002330,15:01:07.597016
0.271343,+0000005,-0000003,-0000003,+0000032,-0000099,+0004158,-0000742,+0000482,-0002330,15:01:07.597016
0.271676,+0000007,-0000019,-0000008,+0000016,-0000094,+0004148,-0000748,+0000470,-0002339,15:01:07.597016
0.272009,+0000024,-0000040,-0000002,+0000022,-0000075,+0004147,-0000748,+0000470,-0002339,15:01:07.597016
0.272342,+0000033,-0000029,-0000016,+0000039,-0000061,+0004154,-0000748,+0000470,-0002339,15:01:07.597016
0.272675,+0000002,-0000024,-0000013,+0000025,-0000079,+0004138,-0000766,+0000486,-0002330,15:01:07.597016
0.273008,+0000019,-0000026,-0000012,+0000014,-0000088,+0004156,-0000766,+0000486,-0002330,15:01:07.597016
0.273341,-0000008,-0000002,+0000002,+0000020,-0000060,+0004152,-0000766,+0000486,-0002330,15:01:07.597016
0.273674,+0000013,-0000027,-0000007,+0000033,-0000084,+0004152,-0000768,+0000478,-0002340,15:01:07.597016
0.274007,+0000017,-0000034,-0000001,+0000017,-0000078,+0004152,-0000768,+0000478,-0002340,15:01:07.597016
0.274340,+0000027,-0000029,-0000008,+0000009,-0000088,+0004152,-0000768,+0000478,-0002340,15:01:07.597016
0.274674,+0000015,-0000018,-0000019,+0000025,-0000093,+0004152,-0000754,+0000470,-0002335,15:01:07.597016
0.275006,+0000010,-0000023,-0000002,+0000020,-0000086,+0004131,-0000754,+0000470,-0002335,15:01:07.597016
0.275339,+0000016,-0000021,-0000014,+0000031,-0000088,+0004141,-0000754,+0000470,-0002335,15:01:07.597016
0.275674,+0000013,-0000034,-0000013,+0000004,-0000069,+0004172,-0000748,+0000468,-0002316,15:01:07.597016
0.276005,+0000031,-0000031,-0000002,+0000030,-0000104,+0004157,-0000748,+0000468,-0002316,15:01:07.597016
0.276338,+0000016,-0000031,-0000010,+0000037,-0000093,+0004146,-0000748,+0000468,-0002316,15:01:07.597016
0.276674,+0000009,-0000029,-0000008,+0000032,-0000099,+0004151,-0000740,+0000466,-0002334,15:01:07.597016
0.277004,+0000008,-0000008,-0000004,+0000025,-0000078,+0004152,-0000740,+0000466,-0002334,15:01:07.597016
0.277337,+0000005,-0000008,-0000009,+0000033,-0000099,+0004142,-0000740,+0000466,-0002334,15:01:07.597016
0.277675,+0000013,-0000023,+0000005,+0000031,-0000074,+0004157,-0000756,+0000480,-0002318,15:01:07.597016
0.278003,+0000018,-0000042,-0000014,+0000016,-0000076,+0004131,-0000756,+0000480,-0002318,15:01:07.597016
0.278336,+0000005,-0000034,-0000011,+0000020,-0000085,+0004151,-0000756,+0000480,-0002318,15:01:07.597016
0.278674,+0000019,-0000011,-0000011,+0000020,-0000076,+0004146,-0000746,+0000470,-0002342,15:01:07.597016
0.279002,+0000015,-0000011,+0000001,+0000009,-0000096,+0004157,-0000746,+0000470,-0002342,15:01:07.597016
0.279335,+0000005,-0000023,-0000021,+0000030,-0000078,+0004157,-0000746,+0000470,-0002342,15:01:07.597016
0.279673,+0000019,-0000023,+0000003,+0000013,-0000092,+0004145,-0000760,+0000480,-0002331,15:01:07.597016
0.280001,+0000012,-0000040,-0000015,+0000035,-0000082,+0004132,-0000760,+0000480,-0002331,15:01:07.597016
0.280334,+0000024,-0000014,-0000008,+0000010,-0000090,+0004154,-0000760,+0000480,-0002331,15:01:07.597016
0.280672,-0000003,-0000011,+0000000,+0000010,-0000091,+0004139,-0000760,+0000458,-0002295,15:01:07.597016
0.281000,+0000017,-0000021,-0000016,+0000023,-0000082,+0004154,-0000760,+0000458,-0002295,15:01:07.597016
0.281333,+0000016,-0000027,-0000004,+0000026,-0000100,+0004152,-0000760,+0000458,-0002295,15:01:07.597016
0.281671,+0000021,-0000027,-0000005,+0000032,-0000088,+0004149,-0000764,+0000474,-0002349,15:01:07.597016
0.281999,+0000033,-0000039,-0000018,+0000027,-0000084,+0004152,-0000764,+0000474,-0002349,15:01:07.597016
0.282332,+0000008,-0000021,-0000018,+0000028,-0000072,+0004171,-0000764,+0000474,-0002349,15:01:07.597016
0.282670,+0000010,-0000013,+0000003,+0000024,-0000091,+0004137,-0000770,+0000472,-0002340,15:01:07.597016
0.282998,+0000005,-0000016,-0000007,+0000019,-0000087,+0004137,-0000770,+0000472,-0002340,15:01:07.597016
0.283331,+0000022,-0000026,-0000010,+0000040,-0000092,+0004164,-0000770,+0000472,-0002340,15:01:07.597016
0.283667,+0000017,-0000042,-0000007,+0000031,-0000083,+0004165,-0000740,+0000472,-0002349,15:01:07.597016
0.283997,+0000027,-0000018,-0000013,+0000008,-0000072,+0004150,-0000740,+0000472,-0002349,15:01:07.597016
0.284330,+0000014,-0000024,-0000006,+0000041,-0000077,+0004155,-0000740,+0000472,-0002349,15:01:07.597016
0.284667,+0000011,-0000013,-0000005,+0000016,-0000081,+0004154,-0000756,+0000474,-0002333,15:01:07.597016
0.284996,-0000001,-0000019,-0000005,+0000016,-0000090,+0004157,-0000756,+0000474,-0002333,15:01:07.597016
0.285329,+0000016,-0000032,-0000007,+0000043,-0000101,+0004148,-0000756,+0000474,-0002333,15:01:07.597016
0.285666,+0000016,-0000039,-0000013,+0000027,-0000088,+0004171,-0000764,+0000476,-0002328,15:01:07.597016
0.285995,+0000017,-0000034,-0000013,-0000001,-0000079,+0004173,-0000764,+0000476,-0002328,15:01:07.597016
0.286328,-0000003,-0000002,+0000003,+0000026,-0000081,+0004163,-0000764,+0000476,-0002328,15:01:07.597016
0.286666,+0000014,-0000023,-0000016,+0000006,-0000069,+0004169,-0000756,+0000464,-0002335,15:01:07.597016
0.286994,+0000002,-0000012,+0000003,+0000012,-0000090,+0004163,-0000756,+0000464,-0002335,15:01:07.597016
0.287327,+0000013,-0000040,-0000008,+0000013,-0000083,+0004141,-0000756,+0000464,-0002335,15:01:07.597016
0.287664,+0000005,-0000034,-0000007,+0000007,-0000115,+0004148,-0000750,+0000470,-0002324,15:01:07.597016
0.287993,+0000024,-0000016,-0000010,+0000009,-0000097,+0004153,-0000750,+0000470,-0002324,15:01:07.597016
0.288326,+0000013,-0000029,-0000011,+0000042,-0000075,+0004157,-0000750,+0000470,-0002324,15:01:07.597016
0.288664,+0000003,-0000005,-0000004,+0000038,-0000069,+0004162,-0000768,+0000456,-0002332,15:01:07.597016
0.288992,+0000014,-0000022,-0000018,+0000016,-0000084,+0004145,-0000768,+0000456,-0002332,15:01:07.597016
0.289325,+0000024,-0000026,-0000002,+0000033,-0000078,+0004149,-0000768,+0000456,-0002332,15:01:07.597016
0.289658,+0000025,-0000047,-0000014,+0000027,-0000080,+0004151,-0000750,+0000470,-0002331,15:01:07.597016
0.289991,+0000016,-0000021,-0000010,+0000038,-0000085,+0004143,-0000750,+0000470,-0002331,15:01:07.597016
0.290324,+0000010,-0000023,-0000010,+0000037,-0000073,+0004148,-0000750,+0000470,-0002331,15:01:07.597016
0.290658,+0000005,-0000012,-0000005,+0000025,-0000100,+0004150,-0000758,+0000452,-0002325,15:01:07.597016
0.290990,+0000006,-0000010,+0000001,+0000020,-0000082,+0004153,-0000758,+0000452,-0002325,15:01:07.597016
0.291323,+0000013,-0000037,+0000000,+0000014,-0000096,+0004152,-0000758,+0000452,-0002325,15:01:07.597016
0.291658,+0000024,-0000038,-0000010,+0000003,-0000082,+0004142,-0000772,+0000460,-0002338,15:01:07.597016
0.291992,+0000022,-0000034,+0000003,+0000022,-0000076,+0004154,-0000772,+0000460,-0002338,15:01:07.597016
0.292324,+0000009,-0000021,-0000020,+0000033,-0000108,+0004145,-0000772,+0000460,-0002338,15:01:07.597016
0.292658,+0000008,+0000008,-0000004,+0000028,-0000085,+0004126,-0000760,+0000462,-0002331,15:01:07.597016
0.293378,+0000030,-0000024,-0000008,+0000010,-0000076,+0004161,-0000760,+0000462,-0002331,15:01:07.597016
0.293983,+0000000,-0000019,-0000005,+0000031,-0000112,+0004148,-0000760,+0000462,-0002331,15:01:07.597016
0.294484,+0000010,-0000002,+0000005,+0000025,-0000085,+0004147,-0000760,+0000462,-0002338,15:01:07.597016
0.294739,+0000003,-0000023,-0000014,+0000007,-0000088,+0004154,-0000760,+0000462,-0002338,15:01:07.597016
0.295070,+0000011,-0000001,-0000004,+0000020,-0000068,+0004162,-0000760,+0000462,-0002338,15:01:07.597016
0.295320,+0000022,-0000021,-0000013,+0000037,-0000080,+0004162,-0000762,+0000474,-0002348,15:01:07.597016
0.295726,+0000021,-0000024,-0000021,+0000021,-0000112,+0004148,-0000762,+0000474,-0002348,15:01:07.597016
0.296244,-0000003,-0000030,-0000006,+0000026,-0000072,+0004158,-0000762,+0000474,-0002348,15:01:07.597016
0.296431,+0000022,-0000030,-0000006,+0000026,-0000072,+0004158,-0000758,+0000472,-0002318,15:01:07.597016
0.296693,+0000000,+0000003,-0000006,+0000005,-0000082,+0004154,-0000758,+0000472,-0002318,15:01:07.597016
0.296987,+0000010,-0000004,+0000001,+0000033,-0000076,+0004165,-0000758,+0000472,-0002318,15:01:07.597016
0.297318,+0000024,-0000027,-0000019,+0000015,-0000077,+0004146,-0000756,+0000482,-0002355,15:01:07.597016
0.297661,+0000017,-0000018,-0000015,+0000034,-0000078,+0004122,-0000756,+0000482,-0002355,15:01:07.597016
0.297983,+0000006,-0000010,+0000001,+0000009,-0000077,+0004156,-0000756,+0000482,-0002355,15:01:07.597016
0.298316,+0000007,-0000010,-0000016,+0000024,-0000094,+0004156,-0000772,+0000472,-0002358,15:01:07.597016
0.298660,+0000013,-0000018,-0000018,+0000025,-0000078,+0004148,-0000772,+0000472,-0002358,15:01:07.597016
0.298982,+0000002,-0000010,+0000000,+0000029,-0000088,+0004141,-0000772,+0000472,-0002358,15:01:07.597016
0.299315,+0000028,-0000048,-0000008,+0000008,-0000075,+0004147,-0000756,+0000474,-0002319,15:01:07.597016
0.299658,+0000022,-0000029,-0000008,+0000012,-0000083,+0004170,-0000756,+0000474,-0002319,15:01:07.597016
0.299981,+0000014,-0000026,-0000015,+0000013,-0000081,+0004147,-0000756,+0000474,-0002319,15:01:07.597016
0.300315,+0000002,-0000008,+0000001,+0000024,-0000083,+0004150,-0000762,+0000468,-0002342,15:01:07.597016
0.300662,+0000013,-0000015,-0000004,+0000024,-0000093,+0004155,-0000762,+0000468,-0002342,15:01:07.597016
0.300980,+0000005,-0000018,+0000009,+0000024,-0000090,+0004144,-0000762,+0000468,-0002342,15:01:07.597016
0.301313,+0000022,-0000044,-0000010,+0000016,-0000082,+0004141,-0000770,+0000488,-0002322,15:01:07.597016
0.301646,+0000007,-0000029,-0000010,+0000004,-0000095,+0004128,-0000770,+0000488,-0002322,15:01:07.597016
0.301979,+0000010,-0000016,-0000004,+0000015,-0000093,+0004158,-0000770,+0000488,-0002322,15:01:07.597016
0.302312,+0000024,-0000018,-0000018,+0000003,-0000099,+0004143,-0000754,+0000470,-0002326,15:01:07.597016
0.302645,-0000016,-0000013,+0000006,+0000020,-0000086,+0004155,-0000754,+0000470,-0002326,15:01:07.597016
0.302978,-0000003,-0000006,+0000009,+0000027,-0000087,+0004118,-0000754,+0000470,-0002326,15:01:07.597016
0.303311,+0000033,-0000037,-0000016,+0000030,-0000082,+0004155,-0000750,+0000482,-0002347,15:01:07.597016
0.303644,+0000022,-0000038,-0000011,+0000019,-0000061,+0004152,-0000750,+0000482,-0002347,15:01:07.597016
0.303977,+0000005,-0000021,-0000008,+0000020,-0000071,+0004161,-0000750,+0000482,-0002347,15:01:07.597016
0.304310,+0000017,-0000013,-0000021,+0000023,-0000060,+0004150,-0000752,+0000474,-0002332,15:01:07.597016
0.304643,+0000014,+0000003,-0000005,+0000007,-0000077,+0004168,-0000752,+0000474,-0002332,15:01:07.597016
0.304976,+0000017,-0000027,+0000000,+0000005,-0000084,+0004133,-0000752,+0000474,-0002332,15:01:07.597016
0.305309,+0000010,-0000045,-0000022,+0000018,-0000079,+0004163,-0000770,+0000474,-0002334,15:01:07.597016
0.305642,+0000036,-0000031,-0000013,+0000019,-0000099,+0004159,-0000770,+0000474,-0002334,15:01:07.597016
0.305975,+0000000,-0000016,+0000004,+0000032,-0000092,+0004146,-0000770,+0000474,-0002334,15:01:07.597016
0.306308,-0000005,+0000000,+0000006,+0000005,-0000075,+0004135,-0000766,+0000484,-0002363,15:01:07.597016
0.306641,+0000011,-0000021,-0000010,+0000029,-0000083,+0004140,-0000766,+0000484,-0002363,15:01:07.597016
0.306974,+0000019,-0000026,+0000000,+0000018,-0000087,+0004150,-0000766,+0000484,-0002363,15:01:07.597016
0.307307,+0000016,-0000038,-0000016,+0000020,-0000079,+0004149,-0000772,+0000480,-0002337,15:01:07.597016
0.307640,+0000027,-0000043,-0000016,+0000022,-0000069,+0004154,-0000772,+0000480,-0002337,15:01:07.597016
0.307973,+0000002,-0000007,-0000013,+0000030,-0000084,+0004127,-0000772,+0000480,-0002337,15:01:07.597016
0.308306,+0000022,-0000032,-0000005,+0000018,-0000068,+0004147,-0000772,+0000472,-0002352,15:01:07.597016
0.308639,+0000013,-0000020,-0000007,+0000014,-0000098,+0004168,-0000772,+0000472,-0002352,15:01:07.597016
0.308972,+0000024,-0000030,-0000002,+0000023,-0000072,+0004159,-0000772,+0000472,-0002352,15:01:07.597016
0.309305,+0000027,-0000037,-0000019,+0000016,-0000091,+0004142,-0000778,+0000474,-0002356,15:01:07.597016
0.309638,+0000033,-0000023,-0000010,+0000006,-0000083,+0004149,-0000778,+0000474,-0002356,15:01:07.597016
0.309971,+0000016,-0000010,-0000008,+0000018,-0000093,+0004145,-0000778,+0000474,-0002356,15:01:07.597016
0.310304,+0000003,-0000010,+0000009,+0000019,-0000085,+0004158,-0000758,+0000486,-0002341,15:01:07.597016
0.310637,+0000010,-0000031,-0000010,+0000012,-0000079,+0004153,-0000758,+0000486,-0002341,15:01:07.597016
0.310970,+0000011,-0000024,-0000005,+0000017,-0000066,+0004139,-0000758,+0000486,-0002341,15:01:07.597016
0.311303,+0000028,-0000019,-0000002,+0000009,-0000091,+0004162,-0000760,+0000458,-0002315,15:01:07.597016
0.311636,+0000014,-0000028,-0000016,+0000015,-0000073,+0004172,-0000760,+0000458,-0002315,15:01:07.597016
0.311969,-0000003,-0000008,-0000010,+0000015,-0000073,+0004139,-0000760,+0000458,-0002315,15:01:07.597016
0.312302,+0000005,-0000007,-0000005,+0000013,-0000101,+0004152,-0000772,+0000470,-0002329,15:01:07.597016
0.312635,+0000016,-0000028,-0000010,+0000025,-0000094,+0004148,-0000772,+0000470,-0002329,15:01:07.597016
0.312968,+0000016,-0000028,-0000005,+0000021,-0000092,+0004134,-0000772,+0000470,-0002329,15:01:07.597016
0.313301,+0000029,-0000042,-0000019,+0000014,-0000072,+0004153,-0000756,+0000460,-0002352,15:01:07.597016
0.313634,+0000011,-0000011,-0000013,+0000025,-0000075,+0004146,-0000756,+0000460,-0002352,15:01:07.597016
0.313967,+0000011,-0000018,-0000002,+0000035,-0000088,+0004147,-0000756,+0000460,-0002352,15:01:07.597016
0.314300,+0000014,-0000008,-0000016,-0000003,-0000093,+0004151,-0000760,+0000470,-0002318,15:01:07.597016
0.314634,-0000001,-0000028,-0000011,+0000028,-0000106,+0004167,-0000760,+0000470,-0002318,15:01:07.597016
0.314966,+0000014,-0000023,+0000001,+0000034,-0000096,+0004157,-0000760,+0000470,-0002318,15:01:07.597016
0.315299,+0000019,-0000040,-0000018,+0000008,-0000094,+0004157,-0000754,+0000460,-0002345,15:01:07.597016
0.315632,+0000022,-0000021,-0000015,+0000010,-0000092,+0004162,-0000754,+0000460,-0002345,15:01:07.597016
0.315965,+0000010,-0000002,-0000005,+0000024,-0000098,+0004174,-0000754,+0000460,-0002345,15:01:07.597016
0.316298,+0000000,-0000014,-0000002,+0000036,-0000072,+0004145,-0000756,+0000468,-0002347,15:01:07.597016
0.316631,+0000003,-0000026,+0000000,+0000011,-0000079,+0004138,-0000756,+0000468,-0002347,15:01:07.597016
0.316964,+0000032,-0000039,-0000012,+0000018,-0000094,+0004158,-0000756,+0000468,-0002347,15:01:07.597016
0.317297,+0000016,-0000031,-0000007,+0000013,-0000102,+0004179,-0000762,+0000462,-0002323,15:01:07.597016
0.317630,+0000008,-0000021,-0000016,+0000022,-0000083,+0004167,-0000762,+0000462,-0002323,15:01:07.597016
0.317963,+0000011,-0000013,-0000011,+0000048,-0000062,+0004164,-0000762,+0000462,-0002323,15:01:07.597016
0.318296,+0000000,-0000007,+0000000,+0000023,-0000099,+0004144,-0000760,+0000460,-0002336,15:01:07.597016
0.318629,+0000022,-0000039,-0000011,+0000030,-0000108,+0004132,-0000760,+0000460,-0002336,15:01:07.597016
0.318962,+0000019,-0000019,+0000000,+0000011,-0000075,+0004147,-0000760,+0000460,-0002336,15:01:07.597016
0.319295,+0000021,-0000039,-0000008,+0000015,-0000075,+0004156,-0000774,+0000460,-0002312,15:01:07.597016
0.319628,+0000011,-0000023,-0000018,+0000035,-0000079,+0004178,-0000774,+0000460,-0002312,15:01:07.597016
0.319961,+0000007,-0000002,-0000010,+0000029,-0000083,+0004154,-0000774,+0000460,-0002312,15:01:07.597016
0.320294,+0000013,-0000021,-0000004,+0000036,-0000097,+0004154,-0000752,+0000454,-0002335,15:01:07.597016
0.320627,+0000027,-0000026,-0000003,+0000028,-0000073,+0004155,-0000752,+0000454,-0002335,15:01:07.597016
0.320960,+0000019,-0000040,-0000013,+0000005,-0000065,+0004160,-0000752,+0000454,-0002335,15:01:07.597016
0.321293,+0000022,-0000022,-0000014,+0000018,-0000099,+0004160,-0000744,+0000468,-0002351,15:01:07.597016
0.321626,+0000008,-0000018,-0000005,+0000031,-0000090,+0004149,-0000744,+0000468,-0002351,15:01:07.597016
0.321959,+0000015,-0000022,-0000013,+0000021,-0000068,+0004150,-0000744,+0000468,-0002351,15:01:07.597016
0.322292,+0000011,-0000016,-0000004,+0000006,-0000084,+0004127,-0000770,+0000472,-0002345,15:01:07.597016
0.322625,+0000015,-0000035,+0000000,+0000022,-0000078,+0004162,-0000770,+0000472,-0002345,15:01:07.597016
0.322958,+0000024,-0000039,-0000010,+0000018,-0000097,+0004150,-0000770,+0000472,-0002345,15:01:07.597016
0.323291,+0000022,-0000018,+0000003,+0000021,-0000087,+0004154,-0000758,+0000476,-0002345,15:01:07.597016
0.323624,+0000005,-0000007,-0000024,+0000009,-0000082,+0004151,-0000758,+0000476,-0002345,15:01:07.597016
0.323957,-0000001,-0000011,+0000001,+0000027,-0000079,+0004147,-0000758,+0000476,-0002345,15:01:07.597016
0.324290,+0000019,-0000017,-0000013,+0000021,-0000067,+0004152,-0000756,+0000456,-0002321,15:01:07.597016
0.324623,+0000010,-0000031,-0000004,+0000020,-0000071,+0004185,-0000756,+0000456,-0002321,15:01:07.597016
0.324956,+0000024,-0000029,-0000012,+0000022,-0000090,+0004155,-0000756,+0000456,-0002321,15:01:07.597016
0.325289,+0000006,-0000018,-0000007,+0000016,-0000080,+0004146,-0000760,+0000464,-0002331,15:01:07.597016
0.325622,+0000013,-0000020,-0000012,+0000019,-0000093,+0004156,-0000760,+0000464,-0002331,15:01:07.597016
0.325955,+0000002,-0000018,-0000003,+0000018,-0000081,+0004152,-0000760,+0000464,-0002331,15:01:07.597016
0.326288,+0000021,-0000039,-0000007,+0000020,-0000090,+0004164,-0000736,+0000476,-0002317,15:01:07.597016
0.326621,+0000011,-0000020,-0000005,+0000017,-0000084,+0004146,-0000736,+0000476,-0002317,15:01:07.597016
0.326954,+0000014,-0000042,-0000013,+0000010,-0000108,+0004143,-0000736,+0000476,-0002317,15:01:07.597016
0.327287,-0000003,-0000010,+0000000,+0000021,-0000072,+0004156,-0000768,+0000484,-0002334,15:01:07.597016
0.327620,+0000019,-0000012,-0000008,+0000016,-0000078,+0004150,-0000768,+0000484,-0002334,15:01:07.597016
0.327953,+0000011,-0000013,-0000011,+0000031,-0000062,+0004160,-0000768,+0000484,-0002334,15:01:07.597016
0.328286,+0000016,-0000016,+0000000,+0000029,-0000075,+0004156,-0000766,+0000482,-0002323,15:01:07.597016
0.328619,+0000027,-0000040,-0000018,+0000043,-0000073,+0004154,-0000766,+0000482,-0002323,15:01:07.597016
0.328952,+0000016,-0000026,-0000018,+0000048,-0000087,+0004143,-0000766,+0000482,-0002323,15:01:07.597016
0.329285,+0000018,-0000026,+0000001,+0000032,-0000092,+0004130,-0000756,+0000464,-0002324,15:01:07.597016
0.329618,+0000002,-0000014,-0000015,+0000039,-0000073,+0004136,-0000756,+0000464,-0002324,15:01:07.597016
0.329951,+0000002,-0000008,-0000006,+0000041,-0000087,+0004139,-0000756,+0000464,-0002324,15:01:07.597016
0.330284,+0000025,-0000029,-0000007,+0000031,-0000070,+0004123,-0000756,+0000478,-0002327,15:01:07.597016
0.330617,-0000002,-0000026,-0000002,+0000017,-0000085,+0004158,-0000756,+0000478,-0002327,15:01:07.597016
0.330950,+0000031,-0000036,-0000011,+0000038,-0000086,+0004161,-0000756,+0000478,-0002327,15:01:07.597016
0.331283,+0000005,-0000027,-0000023,+0000017,-0000088,+0004159,-0000748,+0000470,-0002330,15:01:07.597016
0.331616,+0000011,-0000015,+0000001,+0000006,-0000088,+0004154,-0000748,+0000470,-0002330,15:01:07.597016
0.331949,+0000024,-0000004,-0000007,+0000036,-0000095,+0004160,-0000748,+0000470,-0002330,15:01:07.597016
0.332282,+0000002,-0000021,-0000015,+0000028,-0000075,+0004161,-0000754,+0000456,-0002333,15:01:07.597016
0.332615,+0000030,-0000039,-0000012,+0000016,-0000073,+0004138,-0000754,+0000456,-0002333,15:01:07.597016
0.332948,+0000027,-0000037,-0000010,+0000008,-0000088,+0004153,-0000754,+0000456,-0002333,15:01:07.597016
0.333281,+0000017,-0000016,-0000016,+0000015,-0000095,+0004139,-0000752,+0000482,-0002325,15:01:07.597016
0.333614,+0000002,-0000016,-0000002,+0000031,-0000075,+0004131,-0000752,+0000482,-0002325,15:01:07.597016
0.333947,+0000019,-0000024,-0000021,+0000033,-0000090,+0004139,-0000752,+0000482,-0002325,15:01:07.597016
0.334280,+0000013,-0000026,+0000008,+0000040,-0000076,+0004132,-0000756,+0000482,-0002318,15:01:07.597016
0.334613,+0000032,-0000034,-0000022,+0000016,-0000094,+0004137,-0000756,+0000482,-0002318,15:01:07.597016
0.334946,+0000010,-0000032,+0000006,+0000013,-0000089,+0004149,-0000756,+0000482,-0002318,15:01:07.597016
0.335279,+0000014,-0000014,-0000005,+0000034,-0000068,+0004148,-0000744,+0000468,-0002361,15:01:07.597016
0.335612,+0000008,-0000021,-0000013,+0000015,-0000071,+0004153,-0000744,+0000468,-0002361,15:01:07.597016
0.335945,+0000015,-0000015,+0000003,+0000019,-0000085,+0004152,-0000744,+0000468,-0002361,15:01:07.597016
0.336278,+0000016,-0000031,+0000000,+0000037,-0000091,+0004151,-0000744,+0000486,-0002343,15:01:07.597016
0.336611,+0000038,-0000049,-0000019,+0000022,-0000102,+0004128,-0000744,+0000486,-0002343,15:01:07.597016
0.336944,+0000019,-0000034,-0000013,+0000034,-0000090,+0004139,-0000744,+0000486,-0002343,15:01:07.597016
0.337277,+0000002,+0000000,-0000002,+0000025,-0000088,+0004149,-0000746,+0000476,-0002337,15:01:07.597016
0.337610,+0000016,-0000013,+0000003,+0000034,-0000093,+0004157,-0000746,+0000476,-0002337,15:01:07.597016
0.337943,+0000019,-0000024,-0000014,+0000026,-0000087,+0004136,-0000746,+0000476,-0002337,15:01:07.597016
0.338276,+0000014,-0000044,-0000005,+0000023,-0000067,+0004174,-0000752,+0000474,-0002355,15:01:07.597016
0.338609,+0000024,-0000019,-0000019,-0000004,-0000092,+0004159,-0000752,+0000474,-0002355,15:01:07.597016
0.338942,+0000000,-0000026,+0000001,+0000027,-0000087,+0004179,-0000752,+0000474,-0002355,15:01:07.597016
0.339275,+0000021,-0000019,-0000015,+0000018,-0000090,+0004155,-0000762,+0000484,-0002328,15:01:07.597016
0.339608,-0000001,-0000004,-0000002,+0000010,-0000078,+0004146,-0000762,+0000484,-0002328,15:01:07.597016
0.339941,+0000016,-0000034,-0000011,+0000038,-0000056,+0004159,-0000762,+0000484,-0002328,15:01:07.597016
0.340274,+0000014,-0000023,-0000018,+0000010,-0000089,+0004155,-0000752,+0000466,-0002349,15:01:07.597016
0.340607,+0000022,-0000029,-0000004,+0000022,-0000092,+0004152,-0000752,+0000466,-0002349,15:01:07.597016
0.340940,+0000002,-0000016,-0000010,+0000010,-0000086,+0004142,-0000752,+0000466,-0002349,15:01:07.597016
0.341273,-0000003,-0000008,-0000014,+0000026,-0000088,+0004141,-0000744,+0000480,-0002356,15:01:07.597016
0.341606,+0000005,-0000023,-0000002,+0000020,-0000082,+0004160,-0000744,+0000480,-0002356,15:01:07.597016
0.341939,+0000014,-0000012,+0000005,+0000035,-0000092,+0004138,-0000744,+0000480,-0002356,15:01:07.597016
0.342274,+0000016,-0000029,-0000004,+0000030,-0000093,+0004144,-0000768,+0000468,-0002352,15:01:07.597016
0.342609,+0000022,-0000032,-0000013,+0000022,-0000093,+0004143,-0000768,+0000468,-0002352,15:01:07.597016
0.342943,+0000013,-0000013,-0000002,+0000014,-0000095,+0004158,-0000768,+0000468,-0002352,15:01:07.600020
0.343400,+0000025,-0000029,-0000018,+0000016,-0000088,+0004160,-0000750,+0000470,-0002335,15:01:07.600020
0.343792,+0000011,-0000024,-0000010,+0000033,-0000091,+0004148,-0000750,+0000470,-0002335,15:01:07.600020
0.343990,+0000004,-0000018,+0000000,+0000010,-0000084,+0004139,-0000750,+0000470,-0002335,15:01:07.600020
0.344377,+0000030,-0000048,-0000013,+0000025,-0000089,+0004148,-0000756,+0000476,-0002308,15:01:07.600020
0.344622,+0000005,-0000008,-0000003,+0000025,-0000094,+0004148,-0000756,+0000476,-0002308,15:01:07.600020
0.344944,+0000027,-0000035,-0000008,+0000026,-0000094,+0004161,-0000756,+0000476,-0002308,15:01:07.600020
0.345269,-0000002,-0000012,-0000010,+0000035,-0000076,+0004152,-0000764,+0000474,-0002344,15:01:07.600020
0.345602,+0000019,-0000032,-0000013,+0000016,-0000090,+0004157,-0000764,+0000474,-0002344,15:01:07.600020
0.345935,+0000008,-0000021,+0000000,+0000030,-0000106,+0004144,-0000764,+0000474,-0002344,15:01:07.600020
0.346268,+0000029,-0000037,-0000011,+0000017,-0000073,+0004157,-0000750,+0000486,-0002314,15:01:07.600020
0.346601,+0000019,-0000024,-0000005,+0000027,-0000091,+0004148,-0000750,+0000486,-0002314,15:01:07.600020
0.346934,+0000024,-0000024,-0000014,+0000025,-0000098,+0004138,-0000750,+0000486,-0002314,15:01:07.600020
0.347267,+0000007,-0000005,-0000010,+0000024,-0000078,+0004158,-0000766,+0000468,-0002323,15:01:07.600020
0.347600,+0000017,-0000021,-0000002,+0000017,-0000081,+0004146,-0000766,+0000468,-0002323,15:01:07.600020
0.347933,+0000016,-0000019,-0000006,+0000010,-0000075,+0004140,-0000766,+0000468,-0002323,15:01:07.600020
0.348266,+0000013,-0000040,-0000022,+0000027,-0000095,+0004166,-0000756,+0000476,-0002340,15:01:07.600020
0.348599,+0000030,-0000029,-0000006,+0000023,-0000097,+0004154,-0000756,+0000476,-0002340,15:01:07.600020
0.348932,+0000010,-0000007,-0000008,+0000032,-0000091,+0004160,-0000756,+0000476,-0002340,15:01:07.600020
0.349265,-0000014,-0000011,+0000006,+0000019,-0000080,+0004149,-0000754,+0000482,-0002344,15:01:07.600020
0.349598,+0000031,-0000022,-0000012,+0000027,-0000082,+0004171,-0000754,+0000482,-0002344,15:01:07.600020
0.349931,+0000013,-0000040,-0000010,+0000015,-0000064,+0004165,-0000754,+0000482,-0002344,15:01:07.600020
0.350264,+0000032,-0000035,-0000019,+0000018,-0000083,+0004173,-0000774,+0000466,-0002329,15:01:07.600020
0.350597,+0000025,-0000016,-0000010,+0000004,-0000098,+0004159,-0000774,+0000466,-0002329,15:01:07.600020
0.350930,+0000021,-0000020,-0000011,+0000010,-0000088,+0004162,-0000774,+0000466,-0002329,15:01:07.600020
0.351263,+0000002,-0000002,-0000013,+0000015,-0000058,+0004149,-0000760,+0000470,-0002341,15:01:07.600020
0.351596,+0000017,-0000027,-0000005,+0000021,-0000063,+0004158,-0000760,+0000470,-0002341,15:01:07.600020
0.351929,+0000014,-0000031,-0000002,+0000037,-0000079,+0004136,-0000760,+0000470,-0002341,15:01:07.600020
0.352262,+0000032,-0000018,-0000012,+0000037,-0000098,+0004165,-0000766,+0000458,-0002353,15:01:07.604020
0.352595,+0000011,-0000013,-0000007,+0000022,-0000104,+0004170,-0000766,+0000458,-0002353,15:01:07.604020
0.352928,+0000005,-0000013,-0000004,+0000025,-0000103,+0004149,-0000766,+0000458,-0002353,15:01:07.604020
0.353261,+0000010,-0000018,-0000023,+0000013,-0000098,+0004156,-0000766,+0000470,-0002319,15:01:07.604020
0.353594,+0000002,-0000016,+0000009,+0000009,-0000072,+0004162,-0000766,+0000470,-0002319,15:01:07.604020
0.353927,+0000027,-0000028,-0000010,+0000001,-0000070,+0004154,-0000766,+0000470,-0002319,15:01:07.604020
0.354260,+0000029,-0000029,+0000000,+0000010,-0000088,+0004146,-0000750,+0000468,-0002314,15:01:07.604020
0.354593,+0000011,-0000008,-0000008,+0000004,-0000086,+0004135,-0000750,+0000468,-0002314,15:01:07.604020
0.354926,-0000003,-0000018,-0000013,+0000017,-0000081,+0004145,-0000750,+0000468,-0002314,15:01:07.604020
0.355259,+0000013,-0000012,-0000015,+0000025,-0000078,+0004143,-0000748,+0000460,-0002340,15:01:07.604020
0.355592,+0000010,-0000011,-0000005,+0000036,-0000086,+0004162,-0000748,+0000460,-0002340,15:01:07.604020
0.355925,+0000017,-0000032,-0000007,+0000019,-0000066,+0004139,-0000748,+0000460,-0002340,15:01:07.604020
0.356258,+0000023,-0000022,-0000017,+0000009,-0000077,+0004138,-0000752,+0000482,-0002334,15:01:07.604020
0.356591,+0000009,-0000028,-0000005,+0000020,-0000069,+0004124,-0000752,+0000482,-0002334,15:01:07.604020
0.356924,+0000013,-0000016,-0000011,+0000014,-0000103,+0004124,-0000752,+0000482,-0002334,15:01:07.604020
0.357257,-0000008,-0000005,-0000006,+0000015,-0000092,+0004170,-0000760,+0000470,-0002323,15:01:07.604020
0.357590,+0000005,-0000028,-0000008,+0000029,-0000114,+0004149,-0000760,+0000470,-0002323,15:01:07.604020
0.357923,+0000027,-0000027,-0000002,+0000022,-0000096,+0004157,-0000760,+0000470,-0002323,15:01:07.604020
0.358256,+0000014,-0000029,-0000016,+0000004,-0000088,+0004146,-0000762,+0000466,-0002324,15:01:07.604020
0.358589,+0000016,-0000032,-0000005,+0000010,-0000114,+0004172,-0000762,+0000466,-0002324,15:01:07.604020
0.358922,+0000000,-0000024,-0000011,+0000023,-0000085,+0004160,-0000762,+0000466,-0002324,15:01:07.604020
0.359255,+0000006,-0000007,-0000003,+0000008,-0000090,+0004150,-0000762,+0000484,-0002326,15:01:07.604020
0.359588,+0000016,-0000023,+0000001,+0000014,-0000111,+0004156,-0000762,+0000484,-0002326,15:01:07.604020
0.359921,+0000024,-0000043,-0000010,+0000014,-0000078,+0004142,-0000762,+0000484,-0002326,15:01:07.604020
0.360254,+0000022,-0000034,-0000011,+0000022,-0000086,+0004142,-0000766,+0000484,-0002328,15:01:07.605020
0.360587,+0000014,-0000019,-0000013,+0000022,-0000056,+0004173,-0000766,+0000484,-0002328,15:01:07.605020
0.360920,+0000000,-0000005,-0000007,+0000006,-0000070,+0004170,-0000766,+0000484,-0002328,15:01:07.605020
0.361253,+0000027,-0000028,-0000013,+0000028,-0000088,+0004155,-0000750,+0000482,-0002363,15:01:07.605020
0.361586,+0000010,-0000024,-0000008,+0000016,-0000081,+0004163,-0000750,+0000482,-0002363,15:01:07.605020
0.361919,+0000016,-0000026,+0000001,+0000034,-0000071,+0004158,-0000750,+0000482,-0002363,15:01:07.605020
0.362252,+0000024,-0000039,-0000015,+0000023,-0000077,+0004132,-0000766,+0000484,-0002316,15:01:07.605020
0.362585,+0000008,-0000024,-0000016,+0000014,-0000082,+0004163,-0000766,+0000484,-0002316,15:01:07.605020
0.362918,+0000005,-0000019,-0000007,+0000056,-0000071,+0004142,-0000766,+0000484,-0002316,15:01:07.605020
0.363251,+0000013,-0000005,+0000006,+0000024,-0000083,+0004146,-0000750,+0000476,-0002352,15:01:07.605020
0.363628,+0000013,-0000040,-0000011,+0000044,-0000088,+0004163,-0000750,+0000476,-0002352,15:01:07.605020
0.363917,+0000027,-0000038,-0000014,+0000033,-0000072,+0004168,-0000750,+0000476,-0002352,15:01:07.605020
0.364250,+0000013,-0000015,-0000007,+0000009,-0000090,+0004150,-0000744,+0000480,-0002314,15:01:07.605020
0.364583,+0000003,-0000018,-0000016,+0000025,-0000066,+0004168,-0000744,+0000480,-0002314,15:01:07.605020
0.364917,+0000005,-0000011,-0000004,+0000022,-0000091,+0004154,-0000744,+0000480,-0002314,15:01:07.605020
0.365249,+0000011,-0000034,-0000016,+0000016,-0000082,+0004143,-0000762,+0000474,-0002346,15:01:07.605020
0.365582,+0000025,-0000026,-0000002,+0000020,-0000091,+0004135,-0000762,+0000474,-0002346,15:01:07.605020
0.366040,+0000002,-0000024,-0000005,+0000034,-0000099,+0004156,-0000762,+0000474,-0002346,15:01:07.605020
0.366248,+0000013,-0000023,+0000003,+0000031,-0000075,+0004150,-0000760,+0000478,-0002316,15:01:07.605020
0.366581,+0000006,-0000015,-0000011,+0000014,-0000090,+0004140,-0000760,+0000478,-0002316,15:01:07.605020
0.366951,+0000014,-0000015,-0000007,+0000015,-0000068,+0004142,-0000760,+0000478,-0002316,15:01:07.605020
0.367253,+0000003,-0000018,-0000016,+0000024,-0000068,+0004154,-0000754,+0000488,-0002310,15:01:07.605020
0.367581,+0000027,-0000040,-0000001,+0000011,-0000091,+0004138,-0000754,+0000488,-0002310,15:01:07.605020
0.367914,+0000022,-0000016,-0000007,+0000011,-0000098,+0004147,-0000754,+0000488,-0002310,15:01:07.605020
0.368246,+0000014,-0000029,-0000018,+0000015,-0000074,+0004142,-0000756,+0000474,-0002340,15:01:07.605020
0.368580,+0000010,-0000008,+0000002,+0000010,-0000063,+0004152,-0000756,+0000474,-0002340,15:01:07.605020
0.368912,+0000014,-0000008,-0000008,+0000005,-0000078,+0004143,-0000756,+0000474,-0002340,15:01:07.605020
0.369246,+0000000,-0000026,-0000008,+0000020,-0000082,+0004162,-0000770,+0000482,-0002314,15:01:07.605020
0.369578,+0000036,-0000039,-0000010,+0000009,-0000097,+0004157,-0000770,+0000482,-0002314,15:01:07.605020
0.369912,+0000011,-0000032,-0000004,+0000017,-0000092,+0004164,-0000770,+0000482,-0002314,15:01:07.605020
0.370244,+0000011,-0000035,-0000006,+0000019,-0000093,+0004154,-0000756,+0000484,-0002313,15:01:07.605020
0.370577,+0000006,-0000013,-0000016,+0000041,-0000077,+0004137,-0000756,+0000484,-0002313,15:01:07.605020
0.370911,+0000005,-0000008,-0000010,+0000029,-0000075,+0004157,-0000756,+0000484,-0002313,15:01:07.605020
0.371243,+0000016,-0000020,-0000013,+0000022,-0000080,+0004169,-0000756,+0000474,-0002335,15:01:07.605020
0.371576,+0000016,-0000032,-0000010,+0000020,-0000076,+0004142,-0000756,+0000474,-0002335,15:01:07.605020
0.371909,+0000027,-0000024,-0000005,+0000031,-0000073,+0004147,-0000756,+0000474,-0002335,15:01:07.605020
0.372242,+0000014,-0000037,-0000019,+0000025,-0000078,+0004159,-0000754,+0000470,-0002336,15:01:07.605020
0.372575,+0000010,-0000013,-0000008,+0000032,-0000079,+0004142,-0000754,+0000470,-0002336,15:01:07.605020
0.372908,+0000014,-0000011,-0000007,+0000031,-0000082,+0004156,-0000754,+0000470,-0002336,15:01:07.605020
0.373241,-0000009,-0000028,-0000008,+0000014,-0000095,+0004156,-0000766,+0000480,-0002300,15:01:07.605020
0.373574,+0000033,-0000037,-0000007,+0000018,-0000081,+0004147,-0000766,+0000480,-0002300,15:01:07.605020
0.373907,+0000010,-0000037,-0000019,+0000019,-0000094,+0004160,-0000766,+0000480,-0002300,15:01:07.606020
0.374240,+0000017,-0000022,+0000003,+0000023,-0000066,+0004165,-0000770,+0000490,-0002330,15:01:07.606020
0.374573,+0000002,+0000008,-0000008,-0000003,-0000096,+0004158,-0000770,+0000490,-0002330,15:01:07.606020
0.374906,+0000003,-0000013,-0000007,+0000000,-0000085,+0004160,-0000770,+0000490,-0002330,15:01:07.606020
0.375239,+0000028,-0000037,-0000007,+0000021,-0000107,+0004176,-0000762,+0000474,-0002322,15:01:07.606020
0.375572,+0000025,-0000040,-0000013,+0000024,-0000094,+0004155,-0000762,+0000474,-0002322,15:01:07.606020
0.375905,+0000016,-0000034,-0000010,+0000021,-0000080,+0004153,-0000762,+0000474,-0002322,15:01:07.606020
0.376238,+0000019,-0000016,-0000007,+0000024,-0000090,+0004146,-0000764,+0000478,-0002319,15:01:07.606020
0.376571,+0000010,-0000020,+0000001,+0000034,-0000080,+0004163,-0000764,+0000478,-0002319,15:01:07.606020
0.376904,+0000008,-0000021,+0000001,+0000014,-0000101,+0004166,-0000764,+0000478,-0002319,15:01:07.606020
0.377237,+0000013,-0000035,-0000016,+0000024,-0000079,+0004174,-0000768,+0000494,-0002338,15:01:07.606020
0.377570,+0000016,-0000039,-0000010,+0000029,-0000076,+0004158,-0000768,+0000494,-0002338,15:01:07.606020
