===BEGIN_METADATA===
"This CSV contains gyroscope, accelerometer, and magnetometer data synced with the test named below."
Test Name: 2026-07-07_145713_01,yyyy-mm-dd_hhmmss_{probe#/nano_id}
Calibrations: (not implemented yet)
===END_METADATA===
===BEGIN_DATA===
Time (sec),Gyro X,Gyro Y,Gyro Z,Accel X,Accel Y,Accel Z,Mag X,Mag Y,Mag Z,Processed_Time
0.000197,+0000022,-0000015,-0000011,+0000061,-0000089,+0004173,-0000644,+0000298,-0002521,14:57:14.651381
0.000529,-0000014,-0000001,+0000012,+0000043,-0000096,+0004160,-0000782,+0000488,-0002353,14:57:14.651381
0.000868,+0000019,-0000031,+0000001,+0000046,-0000086,+0004151,-0000782,+0000488,-0002353,14:57:14.651381
0.001195,+0000011,-0000021,-0000008,+0000045,-0000110,+0004146,-0000782,+0000488,-0002353,14:57:14.651381
0.001528,-0000008,-0000014,-0000010,+0000048,-0000092,+0004137,-0000794,+0000476,-0002323,14:57:14.651381
0.001867,+0000021,-0000021,-0000016,+0000049,-0000067,+0004158,-0000794,+0000476,-0002323,14:57:14.651381
0.002194,-0000001,-0000015,-0000005,+0000058,-0000082,+0004144,-0000794,+0000476,-0002323,14:57:14.651381
0.002527,+0000033,-0000035,-0000005,+0000056,-0000077,+0004144,-0000788,+0000494,-0002337,14:57:14.651381
0.002866,+0000019,-0000032,-0000013,+0000036,-0000093,+0004159,-0000788,+0000494,-0002337,14:57:14.651381
0.003193,+0000010,-0000021,+0000001,+0000050,-0000091,+0004136,-0000788,+0000494,-0002337,14:57:14.651381
0.003527,+0000018,-0000024,-0000015,+0000063,-0000095,+0004154,-0000804,+0000488,-0002330,14:57:14.651381
0.003865,-0000006,-0000016,-0000005,+0000041,-0000083,+0004149,-0000804,+0000488,-0002330,14:57:14.652389
0.004192,+0000019,-0000013,-0000005,+0000061,-0000082,+0004150,-0000804,+0000488,-0002330,14:57:14.652389
0.004525,+0000024,-0000029,-0000010,+0000052,-0000080,+0004134,-0000802,+0000492,-0002329,14:57:14.652389
0.004864,+0000026,-0000038,-0000010,+0000045,-0000087,+0004156,-0000802,+0000492,-0002329,14:57:14.652389
0.005191,-0000003,-0000027,-0000014,+0000030,-0000089,+0004156,-0000802,+0000492,-0002329,14:57:14.652389
0.005524,+0000016,-0000008,+0000001,+0000041,-0000087,+0004143,-0000784,+0000502,-0002325,14:57:14.652389
0.005863,-0000012,-0000015,-0000008,+0000066,-0000085,+0004146,-0000784,+0000502,-0002325,14:57:14.652389
0.006190,-0000001,-0000015,+0000001,+0000041,-0000088,+0004134,-0000784,+0000502,-0002325,14:57:14.652389
0.006523,+0000032,-0000044,-0000015,+0000038,-0000099,+0004148,-0000792,+0000476,-0002346,14:57:14.652389
0.006862,+0000011,-0000031,+0000000,+0000027,-0000089,+0004164,-0000792,+0000476,-0002346,14:57:14.652389
0.007189,+0000021,-0000023,-0000013,+0000054,-0000106,+0004165,-0000792,+0000476,-0002346,14:57:14.652389
0.007522,-0000008,+0000000,-0000002,+0000037,-0000060,+0004151,-0000788,+0000474,-0002336,14:57:14.653389
0.007861,-0000003,+0000005,+0000001,+0000034,-0000066,+0004147,-0000788,+0000474,-0002336,14:57:14.653389
0.008188,+0000025,-0000030,-0000004,+0000040,-0000064,+0004151,-0000788,+0000474,-0002336,14:57:14.653389
0.008521,+0000019,-0000042,-0000008,+0000029,-0000104,+0004141,-0000806,+0000508,-0002352,14:57:14.653389
0.008854,+0000025,-0000048,-0000007,+0000034,-0000111,+0004145,-0000806,+0000508,-0002352,14:57:14.653389
0.009187,+0000004,-0000018,-0000013,+0000035,-0000071,+0004165,-0000806,+0000508,-0002352,14:57:14.653389
0.009520,+0000005,-0000002,-0000004,+0000052,-0000093,+0004152,-0000808,+0000494,-0002331,14:57:14.653389
0.009853,+0000008,-0000022,-0000012,+0000043,-0000103,+0004159,-0000808,+0000494,-0002331,14:57:14.653389
0.010189,+0000022,-0000021,+0000000,+0000049,-0000084,+0004160,-0000808,+0000494,-0002331,14:57:14.653389
0.010523,+0000024,-0000045,-0000015,+0000059,-0000083,+0004138,-0000804,+0000482,-0002345,14:57:14.653389
0.011226,+0000010,-0000016,-0000001,+0000042,-0000092,+0004178,-0000804,+0000482,-0002345,14:57:14.654389
0.011518,-0000009,+0000003,-0000011,+0000059,-0000060,+0004149,-0000804,+0000482,-0002345,14:57:14.654389
0.011861,+0000027,-0000042,+0000001,+0000045,-0000071,+0004154,-0000776,+0000484,-0002332,14:57:14.654389
0.012184,+0000017,-0000024,-0000010,+0000037,-0000092,+0004139,-0000776,+0000484,-0002332,14:57:14.654389
0.012519,+0000021,-0000039,-0000026,+0000056,-0000083,+0004145,-0000776,+0000484,-0002332,14:57:14.654389
0.012850,+0000011,-0000021,-0000015,+0000045,-0000089,+0004164,-0000788,+0000490,-0002348,14:57:14.654389
0.013185,+0000008,-0000020,-0000014,+0000037,-0000080,+0004145,-0000788,+0000490,-0002348,14:57:14.654389
0.013516,+0000005,-0000012,-0000013,+0000062,-0000086,+0004135,-0000788,+0000490,-0002348,14:57:14.654389
0.013850,+0000020,-0000019,-0000005,+0000053,-0000091,+0004152,-0000790,+0000500,-0002323,14:57:14.654389
0.014183,+0000014,-0000030,-0000022,+0000069,-0000080,+0004156,-0000790,+0000500,-0002323,14:57:14.654389
0.014517,+0000016,-0000048,-0000024,+0000062,-0000069,+0004139,-0000790,+0000500,-0002323,14:57:14.654389
0.014849,+0000026,-0000024,-0000005,+0000050,-0000087,+0004153,-0000784,+0000486,-0002335,14:57:14.654389
0.015182,+0000008,-0000015,-0000019,+0000065,-0000085,+0004153,-0000784,+0000486,-0002335,14:57:14.654389
0.015519,-0000001,-0000023,+0000006,+0000065,-0000078,+0004161,-0000784,+0000486,-0002335,14:57:14.654389
0.015847,+0000015,-0000018,-0000008,+0000050,-0000084,+0004150,-0000790,+0000494,-0002333,14:57:14.654389
0.016180,+0000024,-0000040,+0000006,+0000064,-0000080,+0004153,-0000790,+0000494,-0002333,14:57:14.654389
0.016513,+0000016,-0000045,-0000015,+0000061,-0000094,+0004158,-0000790,+0000494,-0002333,14:57:14.654389
0.016846,+0000003,-0000016,-0000006,+0000054,-0000094,+0004151,-0000786,+0000482,-0002338,14:57:14.654389
0.017179,+0000018,-0000023,-0000011,+0000051,-0000089,+0004144,-0000786,+0000482,-0002338,14:57:14.654389
0.017512,+0000011,-0000009,-0000002,+0000055,-0000090,+0004141,-0000786,+0000482,-0002338,14:57:14.654389
0.017845,+0000005,-0000026,-0000002,+0000056,-0000104,+0004151,-0000800,+0000488,-0002325,14:57:14.654389
0.018178,+0000017,-0000032,+0000000,+0000055,-0000078,+0004152,-0000800,+0000488,-0002325,14:57:14.654389
0.018511,+0000021,-0000039,-0000013,+0000042,-0000100,+0004157,-0000800,+0000488,-0002325,14:57:14.654389
0.018844,+0000005,-0000023,-0000005,+0000045,-0000079,+0004154,-0000794,+0000476,-0002347,14:57:14.654389
0.019177,+0000016,-0000021,-0000016,+0000028,-0000092,+0004151,-0000794,+0000476,-0002347,14:57:14.654389
0.019510,+0000014,-0000026,-0000010,+0000062,-0000090,+0004161,-0000794,+0000476,-0002347,14:57:14.654389
0.019843,+0000014,-0000013,-0000013,+0000058,-0000092,+0004165,-0000774,+0000486,-0002368,14:57:14.654389
0.020176,+0000019,-0000032,-0000005,+0000047,-0000079,+0004153,-0000774,+0000486,-0002368,14:57:14.654389
0.020509,+0000008,-0000026,-0000013,+0000051,-0000089,+0004153,-0000774,+0000486,-0002368,14:57:14.654389
0.020842,+0000016,-0000031,-0000002,+0000055,-0000075,+0004156,-0000796,+0000492,-0002352,14:57:14.654389
0.021175,+0000005,-0000020,-0000016,+0000032,-0000118,+0004164,-0000796,+0000492,-0002352,14:57:14.654389
0.021508,+0000019,+0000003,+0000005,+0000063,-0000108,+0004157,-0000796,+0000492,-0002352,14:57:14.654389
0.021841,+0000010,-0000042,-0000014,+0000053,-0000094,+0004144,-0000786,+0000500,-0002325,14:57:14.654389
0.022174,+0000010,-0000024,-0000005,+0000058,-0000099,+0004166,-0000786,+0000500,-0002325,14:57:14.654389
0.022507,+0000033,-0000037,-0000004,+0000042,-0000071,+0004160,-0000786,+0000500,-0002325,14:57:14.654389
0.022840,+0000021,-0000026,-0000016,+0000042,-0000089,+0004159,-0000786,+0000492,-0002339,14:57:14.654389
0.023173,-0000006,+0000000,-0000011,+0000056,-0000090,+0004127,-0000786,+0000492,-0002339,14:57:14.654389
0.023506,+0000005,-0000021,-0000008,+0000044,-0000075,+0004154,-0000786,+0000492,-0002339,14:57:14.654389
0.023839,+0000007,-0000029,-0000002,+0000047,-0000092,+0004158,-0000788,+0000478,-0002351,14:57:14.654389
0.024172,+0000027,-0000034,-0000010,+0000047,-0000095,+0004152,-0000788,+0000478,-0002351,14:57:14.654389
0.024505,+0000022,-0000045,-0000015,+0000051,-0000107,+0004157,-0000788,+0000478,-0002351,14:57:14.654389
0.024838,+0000014,-0000024,-0000008,+0000035,-0000092,+0004144,-0000784,+0000486,-0002351,14:57:14.654389
0.025171,+0000008,-0000013,-0000013,+0000034,-0000069,+0004153,-0000784,+0000486,-0002351,14:57:14.654389
0.025504,+0000005,-0000021,-0000001,+0000049,-0000065,+0004134,-0000784,+0000486,-0002351,14:57:14.654389
0.025837,+0000025,-0000028,+0000004,+0000056,-0000086,+0004155,-0000800,+0000488,-0002306,14:57:14.654389
0.026170,+0000011,-0000037,-0000024,+0000066,-0000109,+0004159,-0000800,+0000488,-0002306,14:57:14.654389
0.026503,+0000038,-0000005,+0000003,+0000053,-0000090,+0004158,-0000800,+0000488,-0002306,14:57:14.654389
0.026836,+0000000,-0000016,-0000016,+0000037,-0000099,+0004149,-0000790,+0000492,-0002327,14:57:14.654389
0.027169,+0000016,-0000012,-0000010,+0000059,-0000084,+0004161,-0000790,+0000492,-0002327,14:57:14.654389
0.027502,+0000002,-0000016,-0000002,+0000041,-0000082,+0004153,-0000790,+0000492,-0002327,14:57:14.654389
0.027835,+0000010,-0000024,-0000007,+0000053,-0000102,+0004143,-0000774,+0000484,-0002358,14:57:14.654389
0.028168,+0000032,-0000026,+0000004,+0000050,-0000082,+0004156,-0000774,+0000484,-0002358,14:57:14.654389
0.028501,+0000027,-0000029,-0000010,+0000057,-0000095,+0004161,-0000774,+0000484,-0002358,14:57:14.654389
0.028834,+0000007,-0000014,-0000014,+0000047,-0000088,+0004159,-0000808,+0000502,-0002321,14:57:14.654389
0.029167,+0000014,-0000016,+0000000,+0000038,-0000077,+0004153,-0000808,+0000502,-0002321,14:57:14.654389
0.029500,-0000005,-0000003,-0000014,+0000044,-0000077,+0004135,-0000808,+0000502,-0002321,14:57:14.654389
0.029833,+0000014,-0000034,+0000000,+0000058,-0000094,+0004135,-0000776,+0000488,-0002310,14:57:14.654389
0.030166,+0000014,-0000037,-0000010,+0000049,-0000086,+0004144,-0000776,+0000488,-0002310,14:57:14.654389
0.030499,+0000022,-0000018,-0000012,+0000056,-0000116,+0004151,-0000776,+0000488,-0002310,14:57:14.654389
0.030832,+0000011,-0000016,-0000007,+0000042,-0000076,+0004150,-0000788,+0000488,-0002344,14:57:14.654389
0.031165,+0000000,-0000009,-0000018,+0000042,-0000072,+0004174,-0000788,+0000488,-0002344,14:57:14.654389
0.031498,+0000002,-0000011,-0000008,+0000039,-0000086,+0004171,-0000788,+0000488,-0002344,14:57:14.654389
0.031831,+0000011,-0000026,-0000010,+0000041,-0000093,+0004163,-0000790,+0000484,-0002330,14:57:14.654389
0.032164,+0000025,-0000031,-0000010,+0000068,-0000070,+0004163,-0000790,+0000484,-0002330,14:57:14.654389
0.032497,+0000027,-0000050,-0000011,+0000056,-0000084,+0004131,-0000790,+0000484,-0002330,14:57:14.654389
0.032830,+0000007,-0000005,-0000013,+0000042,-0000096,+0004132,-0000790,+0000484,-0002319,14:57:14.654389
0.033163,+0000011,-0000014,-0000005,+0000051,-0000088,+0004167,-0000790,+0000484,-0002319,14:57:14.654389
0.033496,+0000014,-0000012,+0000006,+0000055,-0000098,+0004138,-0000790,+0000484,-0002319,14:57:14.654389
0.033829,+0000019,-0000039,-0000014,+0000031,-0000096,+0004161,-0000790,+0000480,-0002364,14:57:14.654389
0.034162,+0000019,-0000026,-0000005,+0000055,-0000089,+0004137,-0000790,+0000480,-0002364,14:57:14.654389
0.034495,+0000011,-0000034,-0000010,+0000041,-0000088,+0004163,-0000790,+0000480,-0002364,14:57:14.654389
0.034828,+0000030,-0000012,-0000011,+0000060,-0000092,+0004134,-0000788,+0000498,-0002337,14:57:14.654389
0.035161,+0000005,-0000013,-0000003,+0000066,-0000085,+0004159,-0000788,+0000498,-0002337,14:57:14.654389
0.035494,+0000027,-0000026,+0000003,+0000050,-0000078,+0004157,-0000788,+0000498,-0002337,14:57:14.654389
0.035827,+0000014,-0000026,-0000010,+0000040,-0000084,+0004156,-0000774,+0000486,-0002323,14:57:14.654389
0.036160,+0000024,-0000042,-0000010,+0000050,-0000088,+0004151,-0000774,+0000486,-0002323,14:57:14.654389
0.036493,+0000016,-0000031,-0000003,+0000057,-0000093,+0004160,-0000774,+0000486,-0002323,14:57:14.654389
0.036826,+0000000,+0000000,+0000005,+0000043,-0000100,+0004143,-0000792,+0000474,-0002347,14:57:14.654389
0.037159,+0000008,-0000011,-0000004,+0000055,-0000084,+0004173,-0000792,+0000474,-0002347,14:57:14.654389
0.037492,+0000013,-0000037,-0000002,+0000035,-0000086,+0004183,-0000792,+0000474,-0002347,14:57:14.654389
0.037825,+0000035,-0000038,-0000011,+0000026,-0000093,+0004165,-0000784,+0000484,-0002337,14:57:14.654389
0.038158,+0000011,-0000042,-0000014,+0000055,-0000113,+0004160,-0000784,+0000484,-0002337,14:57:14.654389
0.038491,+0000004,-0000023,-0000008,+0000045,-0000089,+0004171,-0000784,+0000484,-0002337,14:57:14.654389
0.038824,+0000017,-0000028,-0000011,+0000032,-0000093,+0004157,-0000790,+0000484,-0002345,14:57:14.654389
0.039157,+0000002,-0000007,+0000016,+0000022,-0000084,+0004169,-0000790,+0000484,-0002345,14:57:14.654389
0.039490,+0000018,-0000035,-0000022,+0000036,-0000076,+0004147,-0000790,+0000484,-0002345,14:57:14.654389
0.039823,+0000019,-0000037,-0000002,+0000039,-0000106,+0004153,-0000798,+0000494,-0002313,14:57:14.654389
0.040156,+0000024,-0000031,-0000010,+0000042,-0000098,+0004161,-0000798,+0000494,-0002313,14:57:14.654389
0.040489,+0000002,-0000018,-0000007,+0000030,-0000099,+0004133,-0000798,+0000494,-0002313,14:57:14.654389
0.040822,+0000019,-0000012,-0000005,+0000057,-0000078,+0004156,-0000776,+0000488,-0002337,14:57:14.654389
0.041155,+0000009,-0000023,-0000005,+0000020,-0000095,+0004162,-0000776,+0000488,-0002337,14:57:14.654389
0.041488,+0000017,-0000035,-0000010,+0000044,-0000098,+0004148,-0000776,+0000488,-0002337,14:57:14.654389
0.041821,+0000021,-0000039,-0000011,+0000063,-0000102,+0004169,-0000790,+0000496,-0002310,14:57:14.654389
0.042154,+0000016,-0000040,-0000016,+0000037,-0000104,+0004156,-0000790,+0000496,-0002310,14:57:14.654389
0.042487,+0000009,+0000000,-0000008,+0000055,-0000094,+0004148,-0000790,+0000496,-0002310,14:57:14.654389
0.042820,+0000009,-0000021,-0000011,+0000052,-0000089,+0004151,-0000784,+0000484,-0002327,14:57:14.654389
0.043153,+0000008,-0000024,-0000002,+0000043,-0000089,+0004146,-0000784,+0000484,-0002327,14:57:14.654389
0.043491,+0000029,-0000051,-0000008,+0000038,-0000083,+0004161,-0000784,+0000484,-0002327,14:57:14.654389
0.044008,+0000014,-0000024,-0000003,+0000037,-0000091,+0004157,-0000790,+0000500,-0002330,14:57:14.654389
0.044284,+0000006,-0000036,-0000003,+0000037,-0000080,+0004146,-0000790,+0000500,-0002330,14:57:14.654389
0.044639,+0000007,-0000023,-0000005,+0000027,-0000098,+0004137,-0000790,+0000500,-0002330,14:57:14.654389
0.044820,+0000007,-0000023,-0000005,+0000027,-0000098,+0004137,-0000774,+0000476,-0002342,14:57:14.654389
0.045152,+0000005,-0000011,-0000012,+0000051,-0000066,+0004151,-0000774,+0000476,-0002342,14:57:14.654389
0.045484,+0000019,-0000024,-0000003,+0000032,-0000069,+0004160,-0000774,+0000476,-0002342,14:57:14.654389
0.045817,+0000035,-0000029,-0000016,+0000046,-0000058,+0004160,-0000794,+0000492,-0002349,14:57:14.654389
0.046150,-0000006,-0000029,-0000004,+0000035,-0000069,+0004139,-0000794,+0000492,-0002349,14:57:14.654389
0.046484,+0000015,-0000027,-0000013,+0000038,-0000092,+0004156,-0000794,+0000492,-0002349,14:57:14.654389
0.046816,+0000005,-0000005,-0000007,+0000018,-0000075,+0004129,-0000804,+0000478,-0002339,14:57:14.654389
0.047149,+0000013,-0000008,+0000005,+0000054,-0000081,+0004136,-0000804,+0000478,-0002339,14:57:14.654389
0.047482,+0000030,-0000032,-0000005,+0000069,-0000094,+0004158,-0000804,+0000478,-0002339,14:57:14.654389
0.047815,+0000007,-0000039,-0000008,+0000036,-0000089,+0004148,-0000782,+0000488,-0002344,14:57:14.654389
0.048148,+0000021,-0000019,+0000000,+0000053,-0000077,+0004133,-0000782,+0000488,-0002344,14:57:14.654389
0.048481,+0000013,-0000026,-0000010,+0000046,-0000071,+0004177,-0000782,+0000488,-0002344,14:57:14.654389
0.048814,+0000005,-0000005,-0000002,+0000062,-0000074,+0004149,-0000774,+0000490,-0002359,14:57:14.654389
0.049147,+0000014,-0000029,-0000008,+0000049,-0000081,+0004141,-0000774,+0000490,-0002359,14:57:14.654389
0.049480,+0000025,-0000023,-0000016,+0000043,-0000099,+0004150,-0000774,+0000490,-0002359,14:57:14.654389
0.049813,+0000014,-0000021,-0000001,+0000057,-0000087,+0004141,-0000782,+0000482,-0002339,14:57:14.654389
0.050146,+0000033,-0000028,-0000016,+0000049,-0000109,+0004127,-0000782,+0000482,-0002339,14:57:14.654389
0.050480,-0000008,-0000007,-0000002,+0000051,-0000085,+0004148,-0000782,+0000482,-0002339,14:57:14.654389
0.050812,+0000006,-0000007,-0000005,+0000049,-0000089,+0004150,-0000780,+0000482,-0002352,14:57:14.654389
0.051186,+0000014,-0000034,-0000008,+0000060,-0000086,+0004164,-0000780,+0000482,-0002352,14:57:14.654389
0.051722,+0000025,-0000045,-0000015,+0000059,-0000097,+0004169,-0000780,+0000482,-0002352,14:57:14.654389
0.051911,+0000013,-0000021,-0000005,+0000050,-0000086,+0004156,-0000802,+0000484,-0002328,14:57:14.654389
0.052168,+0000005,-0000015,-0000002,+0000054,-0000098,+0004164,-0000802,+0000484,-0002328,14:57:14.654389
0.052479,+0000035,-0000043,-0000021,+0000037,-0000110,+0004136,-0000802,+0000484,-0002328,14:57:14.654389
0.052812,+0000014,-0000027,-0000002,+0000046,-0000095,+0004152,-0000792,+0000476,-0002333,14:57:14.654389
0.053144,+0000011,-0000031,-0000013,+0000032,-0000096,+0004151,-0000792,+0000476,-0002333,14:57:14.654389
0.053477,+0000027,-0000033,-0000007,+0000058,-0000084,+0004149,-0000792,+0000476,-0002333,14:57:14.654389
0.053809,+0000019,-0000032,-0000011,+0000034,-0000081,+0004154,-0000792,+0000478,-0002338,14:57:14.654389
0.054142,+0000013,-0000010,-0000005,+0000044,-0000101,+0004151,-0000792,+0000478,-0002338,14:57:14.654389
0.054476,+0000010,-0000015,-0000008,+0000064,-0000124,+0004159,-0000792,+0000478,-0002338,14:57:14.654389
0.054809,+0000014,-0000021,-0000002,+0000056,-0000076,+0004167,-0000780,+0000484,-0002341,14:57:14.654389
0.055141,+0000014,-0000029,-0000010,+0000057,-0000069,+0004157,-0000780,+0000484,-0002341,14:57:14.654389
0.055475,+0000027,-0000031,-0000011,+0000047,-0000101,+0004155,-0000780,+0000484,-0002341,14:57:14.654389
0.055807,+0000025,-0000037,-0000011,+0000056,-0000081,+0004162,-0000780,+0000492,-0002330,14:57:14.654389
0.056140,+0000005,-0000011,-0000013,+0000050,-0000088,+0004151,-0000780,+0000492,-0002330,14:57:14.654389
0.056473,+0000013,+0000000,+0000000,+0000050,-0000081,+0004136,-0000780,+0000492,-0002330,14:57:14.654389
0.056806,+0000010,-0000026,-0000014,+0000045,-0000090,+0004149,-0000810,+0000474,-0002314,14:57:14.654389
0.057139,+0000015,-0000029,+0000000,+0000051,-0000096,+0004156,-0000810,+0000474,-0002314,14:57:14.654389
0.057472,+0000025,-0000029,-0000013,+0000049,-0000086,+0004144,-0000810,+0000474,-0002314,14:57:14.654389
0.057805,+0000019,-0000036,-0000011,+0000044,-0000101,+0004146,-0000794,+0000482,-0002323,14:57:14.654389
0.058138,-0000011,-0000018,+0000000,+0000062,-0000082,+0004164,-0000794,+0000482,-0002323,14:57:14.654389
0.058471,+0000020,-0000010,-0000016,+0000035,-0000101,+0004177,-0000794,+0000482,-0002323,14:57:14.654389
0.058804,-0000006,-0000013,-0000014,+0000057,-0000093,+0004134,-0000798,+0000478,-0002346,14:57:14.654389
0.059137,+0000013,-0000040,-0000007,+0000050,-0000083,+0004150,-0000798,+0000478,-0002346,14:57:14.654389
0.059470,+0000018,-0000039,-0000011,+0000043,-0000103,+0004139,-0000798,+0000478,-0002346,14:57:14.654389
0.059803,+0000019,-0000029,-0000013,+0000056,-0000088,+0004157,-0000770,+0000476,-0002338,14:57:14.654389
0.060136,+0000016,-0000013,+0000000,+0000061,-0000080,+0004135,-0000770,+0000476,-0002338,14:57:14.654389
0.060469,+0000005,-0000015,-0000006,+0000064,-0000097,+0004147,-0000770,+0000476,-0002338,14:57:14.654389
0.060802,+0000005,-0000010,-0000008,+0000048,-0000083,+0004145,-0000778,+0000482,-0002334,14:57:14.654389
0.061135,+0000027,-0000041,+0000006,+0000038,-0000095,+0004132,-0000778,+0000482,-0002334,14:57:14.654389
0.061468,+0000018,-0000042,-0000024,+0000037,-0000085,+0004159,-0000778,+0000482,-0002334,14:57:14.654389
0.061801,+0000020,-0000019,-0000003,+0000052,-0000080,+0004165,-0000792,+0000484,-0002339,14:57:14.654389
0.062134,+0000021,-0000028,-0000007,+0000028,-0000108,+0004153,-0000792,+0000484,-0002339,14:57:14.654389
0.062467,+0000003,-0000015,-0000007,+0000080,-0000085,+0004166,-0000792,+0000484,-0002339,14:57:14.654389
0.062800,+0000010,-0000028,-0000007,+0000065,-0000101,+0004143,-0000794,+0000486,-0002315,14:57:14.654389
0.063133,+0000022,-0000034,-0000012,+0000058,-0000082,+0004168,-0000794,+0000486,-0002315,14:57:14.654389
0.063466,+0000017,-0000024,+0000003,+0000044,-0000086,+0004144,-0000794,+0000486,-0002315,14:57:14.654389
0.063799,+0000030,-0000031,-0000023,+0000043,-0000097,+0004158,-0000780,+0000488,-0002348,14:57:14.654389
0.064132,-0000001,+0000003,-0000013,+0000056,-0000090,+0004160,-0000780,+0000488,-0002348,14:57:14.654389
0.064465,+0000002,-0000008,+0000003,+0000041,-0000068,+0004154,-0000780,+0000488,-0002348,14:57:14.654389
0.064798,+0000018,-0000021,-0000005,+0000052,-0000087,+0004139,-0000784,+0000482,-0002351,14:57:14.654389
0.065131,+0000017,-0000045,-0000002,+0000048,-0000086,+0004138,-0000784,+0000482,-0002351,14:57:14.654389
0.065464,+0000010,-0000037,-0000013,+0000060,-0000085,+0004134,-0000784,+0000482,-0002351,14:57:14.654389
0.065797,+0000007,-0000020,-0000015,+0000031,-0000080,+0004163,-0000776,+0000510,-0002358,14:57:14.654389
0.066130,+0000001,-0000016,+0000000,+0000044,-0000094,+0004163,-0000776,+0000510,-0002358,14:57:14.654389
0.066463,+0000024,-0000021,-0000007,+0000070,-0000071,+0004135,-0000776,+0000510,-0002358,14:57:14.654389
0.066796,+0000005,-0000022,-0000012,+0000050,-0000083,+0004151,-0000770,+0000492,-0002351,14:57:14.654389
0.067129,+0000022,-0000034,-0000005,+0000049,-0000102,+0004152,-0000770,+0000492,-0002351,14:57:14.654389
0.067462,+0000029,-0000021,-0000007,+0000044,-0000092,+0004165,-0000770,+0000492,-0002351,14:57:14.654389
0.067795,+0000009,-0000012,-0000015,+0000041,-0000092,+0004156,-0000772,+0000472,-0002338,14:57:14.654389
0.068128,+0000011,-0000019,+0000001,+0000043,-0000096,+0004164,-0000772,+0000472,-0002338,14:57:14.654389
0.068461,+0000008,-0000008,-0000008,+0000055,-0000087,+0004164,-0000772,+0000472,-0002338,14:57:14.654389
0.068794,+0000010,-0000022,-0000003,+0000048,-0000106,+0004147,-0000774,+0000474,-0002331,14:57:14.654389
0.069127,+0000033,-0000033,-0000008,+0000035,-0000107,+0004142,-0000774,+0000474,-0002331,14:57:14.654389
0.069460,+0000024,-0000036,-0000019,+0000045,-0000101,+0004144,-0000774,+0000474,-0002331,14:57:14.654389
0.069793,+0000002,-0000003,-0000008,+0000037,-0000085,+0004165,-0000782,+0000478,-0002310,14:57:14.654389
0.070126,+0000014,-0000022,-0000007,+0000044,-0000081,+0004148,-0000782,+0000478,-0002310,14:57:14.654389
0.070459,+0000008,-0000013,+0000003,+0000051,-0000069,+0004154,-0000782,+0000478,-0002310,14:57:14.654389
0.070792,+0000014,-0000031,-0000011,+0000056,-0000078,+0004144,-0000774,+0000496,-0002322,14:57:14.654389
0.071125,+0000013,-0000034,-0000005,+0000034,-0000084,+0004148,-0000774,+0000496,-0002322,14:57:14.654389
0.071458,+0000019,-0000030,-0000011,+0000052,-0000091,+0004150,-0000774,+0000496,-0002322,14:57:14.654389
0.071791,+0000016,-0000016,-0000007,+0000042,-0000098,+0004157,-0000776,+0000470,-0002354,14:57:14.654389
0.072124,+0000003,-0000007,-0000004,+0000067,-0000101,+0004151,-0000776,+0000470,-0002354,14:57:14.654389
0.072457,+0000008,-0000016,-0000013,+0000061,-0000091,+0004150,-0000776,+0000470,-0002354,14:57:14.654389
0.072790,+0000018,-0000024,+0000000,+0000046,-0000076,+0004157,-0000778,+0000468,-0002324,14:57:14.654389
0.073123,+0000027,-0000045,-0000021,+0000047,-0000078,+0004139,-0000778,+0000468,-0002324,14:57:14.654389
0.073456,+0000013,-0000021,+0000001,+0000042,-0000079,+0004160,-0000778,+0000468,-0002324,14:57:14.654389
0.073789,+0000018,-0000032,-0000015,+0000064,-0000090,+0004133,-0000780,+0000472,-0002329,14:57:14.654389
0.074122,-0000006,-0000005,+0000001,+0000046,-0000090,+0004152,-0000780,+0000472,-0002329,14:57:14.654389
0.074455,+0000019,-0000031,-0000008,+0000041,-0000095,+0004161,-0000780,+0000472,-0002329,14:57:14.654389
0.074788,+0000008,-0000023,-0000010,+0000056,-0000110,+0004139,-0000800,+0000492,-0002328,14:57:14.654389
0.075121,+0000032,-0000040,+0000004,+0000056,-0000105,+0004156,-0000800,+0000492,-0002328,14:57:14.654389
0.075454,+0000005,-0000021,-0000019,+0000063,-0000086,+0004153,-0000800,+0000492,-0002328,14:57:14.654389
0.075787,+0000011,-0000024,-0000010,+0000057,-0000070,+0004154,-0000784,+0000484,-0002313,14:57:14.654389
0.076120,+0000006,-0000002,-0000002,+0000064,-0000086,+0004177,-0000784,+0000484,-0002313,14:57:14.654389
0.076453,-0000003,-0000026,+0000000,+0000053,-0000063,+0004164,-0000784,+0000484,-0002313,14:57:14.654389
0.076786,+0000033,-0000040,-0000016,+0000031,-0000069,+0004151,-0000782,+0000484,-0002330,14:57:14.654389
0.077119,+0000012,-0000029,-0000013,+0000056,-0000068,+0004135,-0000782,+0000484,-0002330,14:57:14.654389
0.077452,+0000021,-0000018,-0000013,+0000050,-0000086,+0004159,-0000782,+0000484,-0002330,14:57:14.654389
0.077785,-0000003,+0000003,-0000002,+0000054,-0000078,+0004152,-0000780,+0000476,-0002356,14:57:14.654389
0.078118,-0000001,-0000003,-0000002,+0000036,-0000097,+0004156,-0000780,+0000476,-0002356,14:57:14.654389
0.078451,+0000016,-0000026,-0000008,+0000054,-0000074,+0004155,-0000780,+0000476,-0002356,14:57:14.654389
0.078784,+0000019,-0000051,-0000010,+0000045,-0000085,+0004158,-0000778,+0000486,-0002351,14:57:14.654389
0.079117,+0000031,-0000037,-0000019,+0000060,-0000101,+0004145,-0000778,+0000486,-0002351,14:57:14.654389
0.079450,-0000004,-0000016,-0000011,+0000042,-0000098,+0004128,-0000778,+0000486,-0002351,14:57:14.654389
0.079800,+0000006,-0000018,-0000005,+0000064,-0000095,+0004136,-0000778,+0000498,-0002324,14:57:14.654389
0.080116,+0000008,-0000011,-0000003,+0000047,-0000078,+0004142,-0000778,+0000498,-0002324,14:57:14.654389
0.080449,+0000012,-0000028,-0000007,+0000029,-0000101,+0004130,-0000778,+0000498,-0002324,14:57:14.654389
0.080782,+0000021,-0000042,-0000018,+0000020,-0000095,+0004147,-0000778,+0000494,-0002334,14:57:14.654389
0.081115,+0000029,-0000018,-0000011,+0000045,-0000095,+0004140,-0000778,+0000494,-0002334,14:57:14.654389
0.081448,-0000008,-0000012,-0000003,+0000036,-0000109,+0004178,-0000778,+0000494,-0002334,14:57:14.654389
0.081781,+0000007,-0000007,-0000010,+0000061,-0000103,+0004137,-0000780,+0000486,-0002324,14:57:14.654389
0.082114,+0000016,-0000020,-0000015,+0000057,-0000084,+0004149,-0000780,+0000486,-0002324,14:57:14.654389
0.082447,+0000016,-0000032,+0000000,+0000042,-0000071,+0004157,-0000780,+0000486,-0002324,14:57:14.654389
0.082780,+0000013,-0000045,-0000016,+0000034,-0000097,+0004152,-0000796,+0000508,-0002326,14:57:14.654389
0.083113,+0000025,-0000031,-0000019,+0000062,-0000089,+0004147,-0000796,+0000508,-0002326,14:57:14.654389
0.083446,-0000004,-0000008,+0000001,+0000059,-0000091,+0004149,-0000796,+0000508,-0002326,14:57:14.654389
0.083779,+0000009,-0000014,-0000007,+0000055,-0000093,+0004144,-0000770,+0000486,-0002341,14:57:14.654389
0.084112,+0000013,-0000020,-0000007,+0000054,-0000083,+0004151,-0000770,+0000486,-0002341,14:57:14.654389
0.084445,+0000025,-0000034,+0000001,+0000052,-0000089,+0004168,-0000770,+0000486,-0002341,14:57:14.654389
0.084778,+0000028,-0000031,-0000005,+0000061,-0000093,+0004147,-0000782,+0000494,-0002333,14:57:14.654389
0.085111,+0000015,-0000039,-0000016,+0000062,-0000105,+0004151,-0000782,+0000494,-0002333,14:57:14.654389
0.085444,+0000005,-0000015,-0000010,+0000049,-0000093,+0004148,-0000782,+0000494,-0002333,14:57:14.654389
0.085777,+0000013,-0000005,-0000008,+0000034,-0000104,+0004164,-0000780,+0000482,-0002332,14:57:14.654389
0.086110,-0000002,-0000014,-0000012,+0000080,-0000082,+0004144,-0000780,+0000482,-0002332,14:57:14.654389
0.086443,+0000021,-0000039,-0000005,+0000050,-0000091,+0004129,-0000780,+0000482,-0002332,14:57:14.654389
0.086776,+0000025,-0000035,-0000013,+0000052,-0000083,+0004122,-0000796,+0000490,-0002340,14:57:14.654389
0.087109,+0000025,-0000030,-0000016,+0000067,-0000080,+0004155,-0000796,+0000490,-0002340,14:57:14.654389
0.087442,+0000008,-0000024,-0000005,+0000065,-0000082,+0004154,-0000796,+0000490,-0002340,14:57:14.654389
0.087775,+0000002,+0000003,-0000007,+0000061,-0000093,+0004158,-0000780,+0000490,-0002331,14:57:14.654389
0.088108,+0000002,-0000010,-0000010,+0000042,-0000094,+0004162,-0000780,+0000490,-0002331,14:57:14.654389
0.088441,+0000026,-0000023,-0000003,+0000057,-0000084,+0004153,-0000780,+0000490,-0002331,14:57:14.654389
0.088774,+0000021,-0000048,-0000019,+0000051,-0000093,+0004141,-0000772,+0000484,-0002334,14:57:14.654389
0.089107,+0000010,-0000023,-0000010,+0000046,-0000100,+0004149,-0000772,+0000484,-0002334,14:57:14.654389
0.089440,+0000024,-0000024,-0000018,+0000051,-0000099,+0004151,-0000772,+0000484,-0002334,14:57:14.654389
0.089773,-0000006,-0000015,-0000016,+0000054,-0000080,+0004162,-0000766,+0000476,-0002338,14:57:14.654389
0.090106,+0000016,-0000018,-0000003,+0000054,-0000087,+0004132,-0000766,+0000476,-0002338,14:57:14.654389
0.090439,+0000029,-0000043,-0000011,+0000037,-0000101,+0004127,-0000766,+0000476,-0002338,14:57:14.654389
0.090772,+0000013,-0000027,-0000008,+0000032,-0000090,+0004157,-0000772,+0000492,-0002351,14:57:14.654389
0.091105,+0000016,-0000020,-0000013,+0000041,-0000065,+0004139,-0000772,+0000492,-0002351,14:57:14.654389
0.091438,-0000006,-0000001,+0000001,+0000034,-0000106,+0004155,-0000772,+0000492,-0002351,14:57:14.654389
0.091771,+0000007,-0000015,-0000008,+0000045,-0000101,+0004160,-0000770,+0000492,-0002339,14:57:14.654389
0.092104,+0000011,-0000026,-0000005,+0000048,-0000087,+0004165,-0000770,+0000492,-0002339,14:57:14.654389
0.092437,+0000017,-0000032,+0000001,+0000045,-0000091,+0004143,-0000770,+0000492,-0002339,14:57:14.654389
0.092771,+0000028,-0000038,-0000019,+0000041,-0000075,+0004155,-0000768,+0000500,-0002345,14:57:14.682798
0.093105,+0000008,+0000004,-0000012,+0000067,-0000089,+0004143,-0000768,+0000500,-0002345,14:57:14.683797
0.093442,+0000000,-0000023,-0000008,+0000039,-0000095,+0004142,-0000768,+0000500,-0002345,14:57:14.683797
0.094079,+0000018,-0000018,-0000008,+0000074,-0000088,+0004142,-0000780,+0000482,-0002344,14:57:14.683797
0.094356,+0000000,-0000021,+0000000,+0000056,-0000093,+0004159,-0000780,+0000482,-0002344,14:57:14.683797
0.094616,+0000022,-0000015,-0000021,+0000053,-0000071,+0004174,-0000780,+0000482,-0002344,14:57:14.684796
0.094790,-0000020,+0000006,-0000003,+0000043,-0000114,+0004158,-0000788,+0000484,-0002341,14:57:14.684796
0.095219,+0000035,-0000040,-0000023,+0000040,-0000088,+0004167,-0000788,+0000484,-0002341,14:57:14.684796
0.095438,+0000005,-0000018,+0000000,+0000051,-0000102,+0004167,-0000788,+0000484,-0002341,14:57:14.684796
0.095767,+0000021,-0000042,-0000013,+0000018,-0000078,+0004150,-0000760,+0000484,-0002341,14:57:14.684796
0.096101,+0000003,-0000018,+0000006,+0000036,-0000097,+0004130,-0000760,+0000484,-0002341,14:57:14.684796
0.096591,+0000011,-0000024,-0000013,+0000041,-0000084,+0004154,-0000760,+0000484,-0002341,14:57:14.685798
0.096767,+0000008,-0000023,-0000007,+0000044,-0000103,+0004137,-0000748,+0000496,-0002344,14:57:14.685798
0.097104,+0000028,-0000036,-0000005,+0000043,-0000108,+0004166,-0000748,+0000496,-0002344,14:57:14.685798
0.097432,+0000008,-0000021,-0000003,+0000044,-0000072,+0004154,-0000748,+0000496,-0002344,14:57:14.685798
0.097767,+0000024,-0000032,-0000013,+0000070,-0000081,+0004145,-0000774,+0000482,-0002347,14:57:14.685798
0.098100,+0000013,-0000029,-0000011,+0000053,-0000084,+0004150,-0000774,+0000482,-0002347,14:57:14.685798
0.098433,+0000019,-0000035,-0000008,+0000040,-0000082,+0004147,-0000774,+0000482,-0002347,14:57:14.685798
0.098766,+0000025,-0000027,-0000010,+0000052,-0000103,+0004162,-0000780,+0000490,-0002321,14:57:14.685798
0.099099,+0000003,-0000021,-0000007,+0000036,-0000100,+0004152,-0000780,+0000490,-0002321,14:57:14.685798
0.099431,+0000000,-0000009,-0000005,+0000044,-0000110,+0004158,-0000780,+0000490,-0002321,14:57:14.685798
0.099763,+0000005,-0000016,-0000010,+0000047,-0000103,+0004145,-0000776,+0000484,-0002320,14:57:14.686797
0.100096,+0000020,-0000012,-0000004,+0000048,-0000093,+0004145,-0000776,+0000484,-0002320,14:57:14.686797
0.100431,+0000010,-0000040,-0000008,+0000059,-0000087,+0004145,-0000776,+0000484,-0002320,14:57:14.686797
0.100763,+0000024,-0000027,-0000016,+0000063,-0000102,+0004165,-0000770,+0000484,-0002333,14:57:14.686797
0.101095,+0000006,-0000008,-0000003,+0000060,-0000095,+0004138,-0000770,+0000484,-0002333,14:57:14.686797
0.101428,+0000016,-0000025,-0000005,+0000048,-0000089,+0004143,-0000770,+0000484,-0002333,14:57:14.686797
0.101761,+0000009,-0000011,-0000002,+0000042,-0000080,+0004146,-0000760,+0000484,-0002347,14:57:14.686797
0.102094,+0000028,-0000031,-0000013,+0000057,-0000084,+0004157,-0000760,+0000484,-0002347,14:57:14.686797
0.102427,+0000022,-0000037,-0000013,+0000071,-0000087,+0004158,-0000760,+0000484,-0002347,14:57:14.686797
0.102760,+0000014,-0000022,-0000007,+0000066,-0000092,+0004185,-0000770,+0000492,-0002346,14:57:14.686797
0.103093,+0000019,-0000027,-0000019,+0000071,-0000077,+0004140,-0000770,+0000492,-0002346,14:57:14.686797
0.103426,+0000011,-0000016,-0000004,+0000050,-0000081,+0004148,-0000770,+0000492,-0002346,14:57:14.686797
0.103759,+0000008,-0000015,-0000011,+0000055,-0000093,+0004159,-0000758,+0000482,-0002359,14:57:14.686797
0.104092,+0000030,-0000045,-0000016,+0000055,-0000092,+0004160,-0000758,+0000482,-0002359,14:57:14.686797
0.104425,+0000016,-0000032,-0000008,+0000043,-0000087,+0004140,-0000758,+0000482,-0002359,14:57:14.686797
0.104758,+0000021,-0000037,-0000014,+0000060,-0000101,+0004176,-0000766,+0000478,-0002331,14:57:14.686797
0.105091,+0000005,-0000013,-0000010,+0000073,-0000077,+0004166,-0000766,+0000478,-0002331,14:57:14.686797
0.105424,+0000011,-0000016,+0000000,+0000050,-0000075,+0004144,-0000766,+0000478,-0002331,14:57:14.686797
0.105773,+0000022,-0000031,-0000015,+0000051,-0000085,+0004161,-0000776,+0000484,-0002335,14:57:14.686797
0.106090,+0000004,-0000021,+0000003,+0000055,-0000085,+0004167,-0000776,+0000484,-0002335,14:57:14.686797
0.106423,+0000013,-0000010,-0000013,+0000054,-0000096,+0004150,-0000776,+0000484,-0002335,14:57:14.686797
0.106756,+0000011,-0000010,-0000013,+0000043,-0000072,+0004163,-0000774,+0000464,-0002341,14:57:14.686797
0.107089,+0000013,-0000020,-0000002,+0000053,-0000096,+0004157,-0000774,+0000464,-0002341,14:57:14.686797
0.107422,+0000003,-0000018,-0000007,+0000031,-0000090,+0004148,-0000774,+0000464,-0002341,14:57:14.686797
0.107755,+0000020,-0000029,+0000001,+0000040,-0000091,+0004159,-0000776,+0000474,-0002343,14:57:14.686797
0.108088,+0000022,-0000043,-0000014,+0000078,-0000084,+0004150,-0000776,+0000474,-0002343,14:57:14.686797
0.108421,+0000024,-0000013,-0000010,+0000034,-0000079,+0004149,-0000776,+0000474,-0002343,14:57:14.686797
0.108754,+0000011,-0000021,-0000011,+0000047,-0000092,+0004153,-0000790,+0000474,-0002372,14:57:14.686797
0.109087,+0000001,-0000008,-0000007,+0000046,-0000090,+0004140,-0000790,+0000474,-0002372,14:57:14.687796
0.109420,+0000019,-0000019,-0000013,+0000035,-0000094,+0004156,-0000790,+0000474,-0002372,14:57:14.687796
0.109753,+0000005,-0000023,+0000000,+0000044,-0000097,+0004163,-0000774,+0000474,-0002318,14:57:14.687796
0.110086,+0000022,-0000034,-0000010,+0000041,-0000099,+0004150,-0000774,+0000474,-0002318,14:57:14.687796
0.110419,+0000016,-0000039,-0000018,+0000055,-0000069,+0004161,-0000774,+0000474,-0002318,14:57:14.687796
0.110752,+0000010,-0000011,-0000012,+0000059,-0000085,+0004125,-0000788,+0000474,-0002332,14:57:14.687796
0.111085,+0000010,-0000007,-0000013,+0000070,-0000071,+0004138,-0000788,+0000474,-0002332,14:57:14.687796
0.111418,+0000010,-0000013,+0000005,+0000057,-0000069,+0004140,-0000788,+0000474,-0002332,14:57:14.687796
0.111751,+0000012,-0000034,-0000011,+0000038,-0000077,+0004129,-0000774,+0000484,-0002326,14:57:14.688798
0.112084,+0000020,-0000026,-0000005,+0000061,-0000103,+0004181,-0000774,+0000484,-0002326,14:57:14.688798
0.112417,+0000021,-0000034,-0000015,+0000042,-0000106,+0004157,-0000774,+0000484,-0002326,14:57:14.688798
0.112750,+0000008,-0000008,-0000005,+0000056,-0000079,+0004134,-0000796,+0000504,-0002317,14:57:14.688798
0.113083,+0000000,-0000019,-0000009,+0000055,-0000090,+0004150,-0000796,+0000504,-0002317,14:57:14.688798
0.113416,+0000004,-0000013,-0000005,+0000042,-0000095,+0004153,-0000796,+0000504,-0002317,14:57:14.688798
0.113749,+0000014,-0000032,-0000007,+0000073,-0000079,+0004149,-0000792,+0000480,-0002333,14:57:14.688798
0.114082,+0000021,-0000029,-0000013,+0000056,-0000091,+0004137,-0000792,+0000480,-0002333,14:57:14.688798
0.114415,+0000030,-0000032,-0000020,+0000034,-0000076,+0004152,-0000792,+0000480,-0002333,14:57:14.688798
0.114748,+0000010,-0000024,-0000005,+0000041,-0000078,+0004129,-0000788,+0000476,-0002326,14:57:14.688798
0.115081,+0000003,-0000007,-0000005,+0000048,-0000071,+0004137,-0000788,+0000476,-0002326,14:57:14.688798
0.115414,+0000013,-0000017,+0000001,+0000054,-0000090,+0004157,-0000788,+0000476,-0002326,14:57:14.688798
0.115747,+0000021,-0000034,-0000007,+0000034,-0000082,+0004138,-0000782,+0000490,-0002335,14:57:14.688798
0.116080,+0000016,-0000039,-0000011,+0000043,-0000096,+0004149,-0000782,+0000490,-0002335,14:57:14.688798
0.116413,+0000010,-0000017,-0000008,+0000055,-0000089,+0004139,-0000782,+0000490,-0002335,14:57:14.688798
0.116746,+0000016,-0000029,-0000015,+0000041,-0000082,+0004142,-0000784,+0000500,-0002329,14:57:14.688798
0.117079,+0000000,-0000004,+0000001,+0000041,-0000087,+0004142,-0000784,+0000500,-0002329,14:57:14.688798
0.117412,+0000014,-0000037,-0000018,+0000036,-0000109,+0004145,-0000784,+0000500,-0002329,14:57:14.688798
0.117745,+0000026,-0000034,+0000003,+0000032,-0000109,+0004150,-0000782,+0000472,-0002321,14:57:14.688798
0.118078,+0000038,-0000037,-0000024,+0000050,-0000088,+0004141,-0000782,+0000472,-0002321,14:57:14.688798
0.118411,+0000008,-0000032,-0000013,+0000045,-0000095,+0004161,-0000782,+0000472,-0002321,14:57:14.688798
0.118744,-0000014,+0000000,-0000003,+0000052,-0000084,+0004152,-0000788,+0000482,-0002332,14:57:14.688798
0.119077,+0000018,-0000016,-0000016,+0000054,-0000086,+0004150,-0000788,+0000482,-0002332,14:57:14.688798
0.119410,+0000010,-0000029,-0000004,+0000050,-0000090,+0004163,-0000788,+0000482,-0002332,14:57:14.688798
0.119743,+0000027,-0000034,-0000014,+0000060,-0000097,+0004167,-0000792,+0000488,-0002327,14:57:14.688798
0.120076,+0000026,-0000027,+0000006,+0000053,-0000078,+0004151,-0000792,+0000488,-0002327,14:57:14.688798
0.120409,+0000007,-0000011,+0000004,+0000052,-0000080,+0004160,-0000792,+0000488,-0002327,14:57:14.688798
0.120742,+0000010,-0000015,-0000007,+0000039,-0000085,+0004153,-0000802,+0000484,-0002327,14:57:14.688798
0.121075,+0000011,-0000021,-0000005,+0000047,-0000086,+0004128,-0000802,+0000484,-0002327,14:57:14.689796
0.121408,+0000017,-0000035,-0000010,+0000051,-0000084,+0004146,-0000802,+0000484,-0002327,14:57:14.689796
0.121741,+0000018,-0000034,-0000004,+0000037,-0000079,+0004162,-0000780,+0000482,-0002336,14:57:14.689796
0.122074,+0000027,-0000021,-0000019,+0000033,-0000088,+0004157,-0000780,+0000482,-0002336,14:57:14.689796
0.122407,-0000011,-0000013,+0000006,+0000050,-0000100,+0004154,-0000780,+0000482,-0002336,14:57:14.689796
0.122740,+0000022,-0000013,-0000004,+0000044,-0000095,+0004157,-0000768,+0000482,-0002339,14:57:14.689796
0.123073,+0000002,-0000021,-0000013,+0000046,-0000100,+0004149,-0000768,+0000482,-0002339,14:57:14.689796
0.123406,+0000016,-0000020,-0000003,+0000052,-0000087,+0004152,-0000768,+0000482,-0002339,14:57:14.689796
0.123739,+0000016,-0000042,-0000013,+0000044,-0000090,+0004149,-0000766,+0000478,-0002312,14:57:14.689796
0.124072,+0000016,-0000031,-0000010,+0000041,-0000062,+0004145,-0000766,+0000478,-0002312,14:57:14.689796
0.124405,-0000005,-0000005,+0000000,+0000048,-0000088,+0004165,-0000766,+0000478,-0002312,14:57:14.689796
0.124738,+0000010,-0000013,-0000010,+0000049,-0000092,+0004150,-0000784,+0000488,-0002349,14:57:14.689796
0.125071,+0000002,-0000020,+0000000,+0000044,-0000094,+0004151,-0000784,+0000488,-0002349,14:57:14.689796
0.125404,+0000016,-0000026,-0000006,+0000045,-0000094,+0004160,-0000784,+0000488,-0002349,14:57:14.689796
0.125737,+0000025,-0000040,-0000016,+0000049,-0000095,+0004176,-0000790,+0000480,-0002335,14:57:14.689796
0.126070,-0000004,-0000020,-0000010,+0000043,-0000078,+0004149,-0000790,+0000480,-0002335,14:57:14.689796
0.126403,+0000016,-0000010,-0000010,+0000053,-0000088,+0004136,-0000790,+0000480,-0002335,14:57:14.689796
0.126736,-0000002,-0000013,-0000013,+0000055,-0000085,+0004139,-0000798,+0000480,-0002338,14:57:14.689796
0.127069,+0000003,-0000024,-0000010,+0000045,-0000085,+0004150,-0000798,+0000480,-0002338,14:57:14.689796
0.127402,+0000010,-0000043,-0000007,+0000052,-0000101,+0004155,-0000798,+0000480,-0002338,14:57:14.689796
0.127735,+0000036,-0000034,-0000016,+0000041,-0000093,+0004148,-0000800,+0000468,-0002321,14:57:14.689796
0.128068,+0000014,-0000021,-0000005,+0000041,-0000071,+0004148,-0000800,+0000468,-0002321,14:57:14.689796
0.128401,+0000016,-0000016,-0000011,+0000049,-0000068,+0004153,-0000800,+0000468,-0002321,14:57:14.689796
0.128734,+0000010,-0000010,+0000000,+0000046,-0000066,+0004159,-0000796,+0000488,-0002339,14:57:14.690796
0.129067,+0000011,-0000011,-0000010,+0000049,-0000105,+0004155,-0000796,+0000488,-0002339,14:57:14.690796
0.129400,+0000013,-0000035,-0000007,+0000065,-0000087,+0004162,-0000796,+0000488,-0002339,14:57:14.690796
0.129733,+0000024,-0000021,-0000016,+0000069,-0000079,+0004161,-0000774,+0000480,-0002322,14:57:14.690796
0.130066,+0000016,-0000042,-0000010,+0000042,-0000104,+0004153,-0000774,+0000480,-0002322,14:57:14.690796
0.130399,+0000010,-0000016,-0000007,+0000042,-0000084,+0004132,-0000774,+0000480,-0002322,14:57:14.690796
0.130732,-0000009,-0000002,-0000004,+0000060,-0000087,+0004155,-0000800,+0000478,-0002310,14:57:14.690796
0.131065,+0000017,-0000040,-0000015,+0000047,-0000083,+0004158,-0000800,+0000478,-0002310,14:57:14.690796
0.131398,+0000018,-0000023,-0000006,+0000042,-0000089,+0004147,-0000800,+0000478,-0002310,14:57:14.690796
0.131731,+0000035,-0000042,-0000010,+0000053,-0000094,+0004159,-0000792,+0000478,-0002334,14:57:14.691797
0.132064,+0000010,-0000018,-0000011,+0000037,-0000102,+0004156,-0000792,+0000478,-0002334,14:57:14.691797
0.132397,-0000009,-0000002,-0000008,+0000039,-0000093,+0004145,-0000792,+0000478,-0002334,14:57:14.691797
0.132730,+0000005,-0000014,-0000005,+0000035,-0000080,+0004143,-0000790,+0000486,-0002329,14:57:14.691797
0.133063,+0000004,-0000021,-0000010,+0000041,-0000070,+0004152,-0000790,+0000486,-0002329,14:57:14.691797
0.133396,+0000027,-0000031,-0000005,+0000039,-0000091,+0004150,-0000790,+0000486,-0002329,14:57:14.691797
0.133729,+0000016,-0000040,-0000010,+0000050,-0000112,+0004154,-0000798,+0000490,-0002331,14:57:14.691797
0.134062,+0000003,-0000011,-0000015,+0000055,-0000081,+0004133,-0000798,+0000490,-0002331,14:57:14.691797
0.134395,+0000013,-0000010,-0000010,+0000059,-0000094,+0004136,-0000798,+0000490,-0002331,14:57:14.691797
0.134728,+0000013,-0000023,-0000005,+0000038,-0000075,+0004152,-0000806,+0000476,-0002318,14:57:14.691797
0.135061,+0000011,-0000024,-0000006,+0000045,-0000075,+0004163,-0000806,+0000476,-0002318,14:57:14.691797
0.135394,+0000038,-0000034,-0000013,+0000032,-0000084,+0004145,-0000806,+0000476,-0002318,14:57:14.691797
0.135727,+0000005,-0000021,-0000015,+0000044,-0000085,+0004145,-0000816,+0000498,-0002323,14:57:14.691797
0.136060,+0000003,-0000020,-0000004,+0000048,-0000088,+0004139,-0000816,+0000498,-0002323,14:57:14.691797
0.136393,+0000005,-0000011,-0000016,+0000038,-0000088,+0004155,-0000816,+0000498,-0002323,14:57:14.691797
0.136726,+0000007,-0000004,+0000009,+0000063,-0000089,+0004159,-0000810,+0000492,-0002349,14:57:14.691797
0.137059,+0000024,-0000043,-0000014,+0000055,-0000082,+0004155,-0000810,+0000492,-0002349,14:57:14.691797
0.137392,+0000013,-0000037,-0000007,+0000052,-0000084,+0004140,-0000810,+0000492,-0002349,14:57:14.691797
0.137725,+0000022,-0000022,-0000018,+0000055,-0000077,+0004158,-0000792,+0000472,-0002334,14:57:14.691797
0.138058,+0000002,-0000021,-0000005,+0000038,-0000109,+0004152,-0000792,+0000472,-0002334,14:57:14.691797
0.138391,+0000008,-0000010,-0000008,+0000052,-0000100,+0004159,-0000792,+0000472,-0002334,14:57:14.691797
0.138724,+0000006,-0000023,-0000013,+0000038,-0000079,+0004173,-0000806,+0000480,-0002309,14:57:14.691797
0.139057,+0000010,-0000024,-0000014,+0000039,-0000085,+0004161,-0000806,+0000480,-0002309,14:57:14.691797
0.139390,+0000017,-0000040,-0000013,+0000050,-0000080,+0004149,-0000806,+0000480,-0002309,14:57:14.691797
0.139723,+0000016,-0000021,-0000001,+0000073,-0000087,+0004149,-0000802,+0000470,-0002333,14:57:14.691797
0.140056,+0000009,-0000019,+0000000,+0000043,-0000082,+0004133,-0000802,+0000470,-0002333,14:57:14.691797
0.140389,+0000011,-0000011,-0000016,+0000051,-0000093,+0004165,-0000802,+0000470,-0002333,14:57:14.691797
0.140722,-0000006,-0000022,-0000003,+0000053,-0000080,+0004146,-0000788,+0000484,-0002328,14:57:14.691797
0.141055,+0000016,-0000045,-0000004,+0000069,-0000086,+0004154,-0000788,+0000484,-0002328,14:57:14.691797
0.141388,+0000016,-0000037,-0000018,+0000048,-0000080,+0004147,-0000788,+0000484,-0002328,14:57:14.691797
0.141721,+0000022,-0000029,-0000016,+0000044,-0000075,+0004173,-0000794,+0000472,-0002322,14:57:14.691797
0.142054,+0000006,-0000020,+0000000,+0000057,-0000076,+0004163,-0000794,+0000472,-0002322,14:57:14.691797
0.142387,+0000004,-0000005,+0000001,+0000069,-0000086,+0004158,-0000794,+0000472,-0002322,14:57:14.692796
0.142721,+0000021,-0000020,-0000010,+0000060,-0000091,+0004173,-0000786,+0000494,-0002333,14:57:14.722799
0.143056,+0000017,-0000027,-0000010,+0000045,-0000095,+0004160,-0000786,+0000494,-0002333,14:57:14.722799
0.143389,+0000027,-0000037,-0000005,+0000043,-0000095,+0004163,-0000786,+0000494,-0002333,14:57:14.722799
0.144058,+0000017,-0000021,+0000000,+0000040,-0000102,+0004142,-0000776,+0000478,-0002315,14:57:14.722799
0.144446,+0000013,-0000018,-0000008,+0000047,-0000086,+0004149,-0000776,+0000478,-0002315,14:57:14.722799
0.144724,+0000016,-0000029,-0000005,+0000044,-0000081,+0004156,-0000776,+0000478,-0002315,14:57:14.724813
0.145055,+0000014,-0000021,-0000005,+0000043,-0000087,+0004132,-0000778,+0000476,-0002336,14:57:14.725807
0.145389,+0000016,-0000010,-0000013,+0000054,-0000086,+0004172,-0000778,+0000476,-0002336,14:57:14.725807
0.145720,+0000008,-0000040,+0000001,+0000038,-0000119,+0004148,-0000778,+0000476,-0002336,14:57:14.725807
0.146051,+0000000,+0000006,-0000002,+0000045,-0000101,+0004148,-0000774,+0000474,-0002343,14:57:14.725807
0.146383,+0000000,-0000016,-0000002,+0000052,-0000076,+0004175,-0000774,+0000474,-0002343,14:57:14.725807
0.146716,+0000024,-0000037,-0000018,+0000047,-0000098,+0004140,-0000774,+0000474,-0002343,14:57:14.725807
0.147049,+0000024,-0000029,+0000003,+0000047,-0000098,+0004151,-0000782,+0000482,-0002366,14:57:14.725807
0.147382,+0000028,-0000050,-0000014,+0000056,-0000079,+0004154,-0000782,+0000482,-0002366,14:57:14.725807
0.147716,-0000001,-0000004,-0000005,+0000068,-0000098,+0004149,-0000782,+0000482,-0002366,14:57:14.725807
0.148048,+0000014,-0000031,-0000019,+0000059,-0000099,+0004157,-0000780,+0000482,-0002345,14:57:14.725807
0.148401,+0000013,-0000021,+0000003,+0000048,-0000082,+0004132,-0000780,+0000482,-0002345,14:57:14.725807
0.148714,+0000008,-0000023,-0000010,+0000032,-0000100,+0004148,-0000780,+0000482,-0002345,14:57:14.725807
0.149047,+0000007,-0000017,-0000012,+0000046,-0000101,+0004150,-0000800,+0000488,-0002345,14:57:14.725807
0.149380,+0000019,-0000023,-0000008,+0000061,-0000074,+0004129,-0000800,+0000488,-0002345,14:57:14.725807
0.149713,+0000011,-0000028,-0000008,+0000061,-0000078,+0004135,-0000800,+0000488,-0002345,14:57:14.725807
0.150046,+0000007,-0000019,-0000013,+0000054,-0000073,+0004146,-0000784,+0000496,-0002360,14:57:14.725807
0.150379,+0000002,-0000013,-0000007,+0000045,-0000092,+0004138,-0000784,+0000496,-0002360,14:57:14.725807
0.150712,+0000013,-0000026,+0000006,+0000053,-0000059,+0004154,-0000784,+0000496,-0002360,14:57:14.725807
0.151045,+0000010,-0000051,-0000018,+0000049,-0000093,+0004153,-0000786,+0000488,-0002380,14:57:14.725807
0.151378,+0000008,-0000023,-0000015,+0000040,-0000074,+0004164,-0000786,+0000488,-0002380,14:57:14.725807
0.151711,+0000016,-0000024,-0000007,+0000058,-0000076,+0004158,-0000786,+0000488,-0002380,14:57:14.725807
0.152044,+0000000,-0000003,-0000005,+0000034,-0000084,+0004136,-0000788,+0000502,-0002349,14:57:14.725807
0.152377,+0000009,-0000016,-0000006,+0000036,-0000085,+0004131,-0000788,+0000502,-0002349,14:57:14.725807
0.152710,+0000027,-0000029,-0000010,+0000067,-0000081,+0004134,-0000788,+0000502,-0002349,14:57:14.725807
0.153043,+0000024,-0000024,-0000008,+0000041,-0000093,+0004148,-0000794,+0000484,-0002356,14:57:14.725807
0.153413,+0000008,-0000024,-0000014,+0000054,-0000080,+0004150,-0000794,+0000484,-0002356,14:57:14.725807
0.153709,+0000017,-0000023,-0000012,+0000064,-0000095,+0004140,-0000794,+0000484,-0002356,14:57:14.725807
0.154042,+0000003,-0000016,-0000003,+0000047,-0000088,+0004148,-0000784,+0000492,-0002361,14:57:14.725807
0.154463,+0000003,-0000018,-0000011,+0000049,-0000079,+0004171,-0000784,+0000492,-0002361,14:57:14.725807
0.154708,+0000014,-0000028,-0000004,+0000052,-0000091,+0004154,-0000784,+0000492,-0002361,14:57:14.725807
0.155041,+0000017,-0000032,-0000018,+0000048,-0000087,+0004132,-0000786,+0000490,-0002361,14:57:14.725807
0.155374,+0000026,-0000040,-0000015,+0000046,-0000098,+0004133,-0000786,+0000490,-0002361,14:57:14.725807
0.155873,+0000010,-0000016,-0000010,+0000043,-0000083,+0004156,-0000786,+0000490,-0002361,14:57:14.725807
0.156062,+0000010,-0000019,-0000005,+0000043,-0000103,+0004154,-0000774,+0000494,-0002360,14:57:14.726800
0.156377,-0000005,+0000008,-0000002,+0000063,-0000103,+0004130,-0000774,+0000494,-0002360,14:57:14.726800
0.156708,+0000017,-0000026,-0000010,+0000059,-0000092,+0004151,-0000774,+0000494,-0002360,14:57:14.726800
0.157039,+0000014,-0000015,-0000013,+0000047,-0000105,+0004148,-0000776,+0000482,-0002359,14:57:14.726800
0.157377,+0000012,-0000024,+0000008,+0000051,-0000093,+0004153,-0000776,+0000482,-0002359,14:57:14.726800
0.157705,+0000016,-0000013,-0000012,+0000048,-0000089,+0004170,-0000776,+0000482,-0002359,14:57:14.726800
0.158038,-0000004,-0000010,-0000012,+0000055,-0000080,+0004141,-0000796,+0000484,-0002341,14:57:14.726800
0.158374,+0000030,-0000018,-0000008,+0000047,-0000080,+0004149,-0000796,+0000484,-0002341,14:57:14.726800
0.158705,+0000018,-0000023,+0000000,+0000045,-0000114,+0004153,-0000796,+0000484,-0002341,14:57:14.726800
0.159038,+0000022,-0000031,-0000026,+0000058,-0000111,+0004162,-0000782,+0000488,-0002326,14:57:14.726800
0.159377,+0000017,-0000026,-0000010,+0000037,-0000096,+0004173,-0000782,+0000488,-0002326,14:57:14.726800
0.159704,-0000005,-0000010,-0000005,+0000059,-0000066,+0004172,-0000782,+0000488,-0002326,14:57:14.726800
0.160036,+0000008,-0000018,-0000013,+0000081,-0000093,+0004164,-0000782,+0000490,-0002339,14:57:14.726800
0.160372,+0000010,-0000045,-0000005,+0000054,-0000076,+0004139,-0000782,+0000490,-0002339,14:57:14.726800
0.160702,+0000025,-0000024,-0000016,+0000038,-0000100,+0004155,-0000782,+0000490,-0002339,14:57:14.726800
0.161035,+0000027,-0000034,-0000007,+0000050,-0000109,+0004153,-0000782,+0000500,-0002322,14:57:14.726800
0.161373,+0000013,-0000020,-0000016,+0000060,-0000099,+0004147,-0000782,+0000500,-0002322,14:57:14.726800
0.161701,+0000008,-0000005,+0000000,+0000061,-0000103,+0004149,-0000782,+0000500,-0002322,14:57:14.726800
0.162034,+0000018,-0000029,-0000021,+0000042,-0000092,+0004174,-0000786,+0000504,-0002342,14:57:14.726800
0.162372,-0000001,-0000019,-0000014,+0000040,-0000102,+0004154,-0000786,+0000504,-0002342,14:57:14.726800
0.162700,+0000027,-0000032,-0000002,+0000050,-0000091,+0004163,-0000786,+0000504,-0002342,14:57:14.726800
0.163033,+0000006,-0000021,-0000022,+0000044,-0000091,+0004152,-0000788,+0000476,-0002354,14:57:14.726800
0.163371,+0000003,-0000014,-0000004,+0000050,-0000086,+0004148,-0000788,+0000476,-0002354,14:57:14.726800
0.163699,+0000005,-0000020,-0000007,+0000046,-0000106,+0004144,-0000788,+0000476,-0002354,14:57:14.726800
0.164032,+0000005,-0000023,-0000011,+0000058,-0000096,+0004141,-0000786,+0000484,-0002354,14:57:14.726800
0.164370,+0000016,-0000034,-0000005,+0000038,-0000101,+0004157,-0000786,+0000484,-0002354,14:57:14.726800
0.164698,+0000016,-0000018,-0000018,+0000048,-0000071,+0004142,-0000786,+0000484,-0002354,14:57:14.726800
0.165031,+0000005,-0000022,-0000005,+0000058,-0000091,+0004145,-0000786,+0000490,-0002358,14:57:14.726800
0.165369,+0000018,-0000016,-0000005,+0000049,-0000085,+0004176,-0000786,+0000490,-0002358,14:57:14.726800
0.165697,-0000004,-0000013,-0000008,+0000055,-0000081,+0004143,-0000786,+0000490,-0002358,14:57:14.726800
0.166030,+0000025,-0000026,-0000005,+0000052,-0000081,+0004157,-0000796,+0000490,-0002328,14:57:14.726800
0.166368,+0000024,-0000018,-0000005,+0000050,-0000108,+0004140,-0000796,+0000490,-0002328,14:57:14.726800
0.166696,+0000019,-0000045,-0000026,+0000045,-0000080,+0004153,-0000796,+0000490,-0002328,14:57:14.726800
0.167029,+0000013,-0000019,+0000000,+0000062,-0000089,+0004146,-0000780,+0000490,-0002343,14:57:14.726800
0.167365,+0000019,-0000018,-0000015,+0000037,-0000068,+0004145,-0000780,+0000490,-0002343,14:57:14.726800
0.167695,-0000001,-0000008,-0000002,+0000036,-0000098,+0004163,-0000780,+0000490,-0002343,14:57:14.726800
0.168028,+0000030,-0000027,-0000004,+0000030,-0000088,+0004149,-0000776,+0000484,-0002357,14:57:14.726800
0.168365,+0000018,-0000021,-0000008,+0000034,-0000068,+0004158,-0000776,+0000484,-0002357,14:57:14.726800
0.168694,+0000028,-0000037,-0000004,+0000033,-0000074,+0004158,-0000776,+0000484,-0002357,14:57:14.726800
0.169027,+0000016,-0000018,-0000011,+0000063,-0000089,+0004153,-0000788,+0000486,-0002344,14:57:14.726800
0.169364,+0000003,-0000018,-0000021,+0000061,-0000097,+0004141,-0000788,+0000486,-0002344,14:57:14.726800
0.169693,+0000013,-0000010,+0000003,+0000059,-0000105,+0004140,-0000788,+0000486,-0002344,14:57:14.726800
0.170026,+0000011,-0000027,-0000006,+0000060,-0000101,+0004149,-0000792,+0000502,-0002342,14:57:14.726800
0.170364,+0000013,-0000022,+0000000,+0000065,-0000093,+0004157,-0000792,+0000502,-0002342,14:57:14.726800
0.170692,+0000024,-0000026,-0000023,+0000040,-0000091,+0004166,-0000792,+0000502,-0002342,14:57:14.726800
0.171025,+0000010,-0000019,+0000000,+0000040,-0000097,+0004160,-0000772,+0000496,-0002353,14:57:14.726800
0.171362,+0000008,-0000016,-0000015,+0000059,-0000106,+0004140,-0000772,+0000496,-0002353,14:57:14.726800
0.171691,+0000005,-0000008,-0000004,+0000036,-0000089,+0004154,-0000772,+0000496,-0002353,14:57:14.726800
0.172024,+0000026,-0000031,-0000016,+0000057,-0000108,+0004147,-0000784,+0000490,-0002325,14:57:14.726800
0.172361,+0000015,-0000028,+0000001,+0000046,-0000090,+0004163,-0000784,+0000490,-0002325,14:57:14.726800
0.172690,+0000021,-0000043,-0000007,+0000052,-0000086,+0004158,-0000784,+0000490,-0002325,14:57:14.726800
0.173023,+0000021,-0000031,-0000018,+0000040,-0000094,+0004158,-0000796,+0000492,-0002350,14:57:14.726800
0.173356,+0000008,-0000010,-0000005,+0000048,-0000088,+0004150,-0000796,+0000492,-0002350,14:57:14.726800
0.173689,+0000003,-0000003,-0000007,+0000064,-0000104,+0004142,-0000796,+0000492,-0002350,14:57:14.726800
0.174022,+0000015,-0000034,-0000003,+0000050,-0000089,+0004134,-0000790,+0000486,-0002346,14:57:14.727802
0.174356,+0000014,-0000034,-0000007,+0000053,-0000086,+0004145,-0000790,+0000486,-0002346,14:57:14.727802
0.174688,+0000021,-0000035,-0000013,+0000040,-0000084,+0004140,-0000790,+0000486,-0002346,14:57:14.727802
0.175021,+0000007,-0000012,-0000007,+0000066,-0000081,+0004140,-0000790,+0000490,-0002349,14:57:14.727802
0.175356,+0000013,-0000003,-0000012,+0000044,-0000096,+0004157,-0000790,+0000490,-0002349,14:57:14.727802
0.175687,+0000005,-0000023,+0000000,+0000052,-0000099,+0004162,-0000790,+0000490,-0002349,14:57:14.727802
0.176020,+0000021,-0000023,-0000005,+0000029,-0000079,+0004163,-0000790,+0000492,-0002342,14:57:14.727802
0.176357,+0000024,-0000050,-0000007,+0000053,-0000080,+0004148,-0000790,+0000492,-0002342,14:57:14.727802
0.176686,+0000021,-0000009,+0000004,+0000036,-0000094,+0004150,-0000790,+0000492,-0002342,14:57:14.727802
0.177019,+0000003,-0000020,-0000006,+0000056,-0000090,+0004163,-0000778,+0000476,-0002321,14:57:14.727802
0.177356,+0000022,-0000026,-0000016,+0000049,-0000084,+0004144,-0000778,+0000476,-0002321,14:57:14.727802
0.177685,-0000003,-0000016,+0000004,+0000056,-0000088,+0004149,-0000778,+0000476,-0002321,14:57:14.727802
0.178018,+0000022,-0000032,-0000011,+0000061,-0000101,+0004133,-0000786,+0000476,-0002332,14:57:14.727802
0.178355,+0000032,-0000044,-0000007,+0000056,-0000074,+0004158,-0000786,+0000476,-0002332,14:57:14.727802
0.178684,+0000008,-0000024,-0000013,+0000046,-0000096,+0004154,-0000786,+0000476,-0002332,14:57:14.727802
0.179017,+0000004,-0000010,-0000005,+0000039,-0000088,+0004143,-0000780,+0000488,-0002310,14:57:14.727802
0.179363,+0000010,-0000021,-0000019,+0000043,-0000089,+0004168,-0000780,+0000488,-0002310,14:57:14.727802
0.179683,-0000006,-0000016,-0000002,+0000072,-0000078,+0004154,-0000780,+0000488,-0002310,14:57:14.727802
0.180016,+0000030,-0000038,-0000008,+0000060,-0000095,+0004153,-0000786,+0000492,-0002339,14:57:14.727802
0.180362,+0000019,-0000023,-0000013,+0000040,-0000096,+0004145,-0000786,+0000492,-0002339,14:57:14.727802
0.180682,+0000010,-0000026,-0000002,+0000067,-0000080,+0004146,-0000786,+0000492,-0002339,14:57:14.727802
0.181015,+0000022,-0000020,-0000011,+0000045,-0000087,+0004142,-0000794,+0000474,-0002347,14:57:14.727802
0.181361,-0000003,-0000002,+0000006,+0000051,-0000088,+0004141,-0000794,+0000474,-0002347,14:57:14.727802
0.181681,+0000014,-0000023,-0000010,+0000047,-0000106,+0004142,-0000794,+0000474,-0002347,14:57:14.727802
0.182014,+0000014,-0000043,-0000002,+0000051,-0000087,+0004142,-0000792,+0000486,-0002355,14:57:14.727802
0.182362,+0000013,-0000031,-0000016,+0000045,-0000085,+0004132,-0000792,+0000486,-0002355,14:57:14.727802
0.182680,+0000017,-0000024,-0000007,+0000060,-0000084,+0004153,-0000792,+0000486,-0002355,14:57:14.727802
0.183013,+0000020,-0000018,-0000018,+0000042,-0000097,+0004149,-0000774,+0000486,-0002358,14:57:14.727802
0.183358,-0000006,+0000001,-0000015,+0000058,-0000106,+0004147,-0000774,+0000486,-0002358,14:57:14.727802
0.183679,-0000004,-0000012,+0000003,+0000052,-0000085,+0004140,-0000774,+0000486,-0002358,14:57:14.727802
0.184012,+0000043,-0000029,-0000016,+0000060,-0000100,+0004149,-0000786,+0000508,-0002347,14:57:14.727802
0.184345,+0000010,-0000045,-0000018,+0000029,-0000103,+0004164,-0000786,+0000508,-0002347,14:57:14.727802
0.184678,+0000018,-0000020,-0000004,+0000048,-0000087,+0004151,-0000786,+0000508,-0002347,14:57:14.727802
0.185011,+0000013,-0000018,-0000008,+0000053,-0000077,+0004143,-0000788,+0000492,-0002329,14:57:14.727802
0.185344,+0000003,-0000010,-0000005,+0000053,-0000091,+0004159,-0000788,+0000492,-0002329,14:57:14.727802
0.185677,+0000025,-0000021,-0000004,+0000034,-0000109,+0004144,-0000788,+0000492,-0002329,14:57:14.727802
0.186010,+0000028,-0000042,-0000013,+0000043,-0000095,+0004141,-0000788,+0000488,-0002329,14:57:14.727802
0.186343,+0000033,-0000039,-0000013,+0000040,-0000107,+0004139,-0000788,+0000488,-0002329,14:57:14.727802
0.186676,+0000008,-0000015,-0000006,+0000028,-0000094,+0004153,-0000788,+0000488,-0002329,14:57:14.727802
0.187009,+0000012,-0000004,+0000003,+0000049,-0000077,+0004161,-0000770,+0000486,-0002336,14:57:14.727802
0.187342,+0000008,-0000015,+0000003,+0000033,-0000082,+0004169,-0000770,+0000486,-0002336,14:57:14.727802
0.187675,+0000017,-0000016,-0000010,+0000042,-0000099,+0004144,-0000770,+0000486,-0002336,14:57:14.727802
0.188008,+0000021,-0000026,+0000000,+0000048,-0000103,+0004140,-0000784,+0000486,-0002323,14:57:14.727802
0.188341,+0000021,-0000045,-0000010,+0000050,-0000090,+0004157,-0000784,+0000486,-0002323,14:57:14.727802
0.188674,+0000000,-0000021,-0000010,+0000040,-0000075,+0004151,-0000784,+0000486,-0002323,14:57:14.727802
0.189007,+0000005,+0000000,-0000008,+0000053,-0000106,+0004149,-0000804,+0000482,-0002311,14:57:14.727802
0.189340,+0000011,-0000036,-0000015,+0000041,-0000089,+0004135,-0000804,+0000482,-0002311,14:57:14.727802
0.189673,+0000022,-0000003,+0000003,+0000042,-0000082,+0004148,-0000804,+0000482,-0002311,14:57:14.727802
0.190006,+0000019,-0000044,-0000022,+0000035,-0000092,+0004169,-0000794,+0000496,-0002323,14:57:14.727802
0.190339,+0000028,-0000024,-0000008,+0000064,-0000102,+0004131,-0000794,+0000496,-0002323,14:57:14.728803
0.190672,+0000021,-0000010,-0000013,+0000053,-0000095,+0004141,-0000794,+0000496,-0002323,14:57:14.728803
0.191005,+0000011,-0000020,-0000007,+0000045,-0000097,+0004154,-0000806,+0000498,-0002335,14:57:14.728803
0.191338,+0000005,-0000002,-0000004,+0000044,-0000081,+0004153,-0000806,+0000498,-0002335,14:57:14.728803
0.191671,+0000013,-0000040,-0000015,+0000045,-0000071,+0004139,-0000806,+0000498,-0002335,14:57:14.728803
0.192004,+0000032,-0000035,-0000012,+0000041,-0000073,+0004161,-0000808,+0000512,-0002323,14:57:14.728803
0.192337,+0000002,-0000028,-0000022,+0000050,-0000063,+0004160,-0000808,+0000512,-0002323,14:57:14.728803
0.192670,+0000024,-0000014,-0000008,+0000053,-0000116,+0004135,-0000808,+0000512,-0002323,14:57:14.786264
0.193005,+0000000,-0000016,-0000008,+0000041,-0000112,+0004163,-0000776,+0000488,-0002366,14:57:14.786264
0.193339,+0000013,-0000012,-0000005,+0000046,-0000092,+0004147,-0000776,+0000488,-0002366,14:57:14.786264
0.194037,+0000017,-0000032,-0000015,+0000057,-0000089,+0004149,-0000776,+0000488,-0002366,14:57:14.786264
0.194432,+0000000,-0000021,-0000012,+0000050,-0000090,+0004141,-0000778,+0000508,-0002332,14:57:14.786264
0.194669,+0000009,-0000026,-0000007,+0000039,-0000081,+0004164,-0000778,+0000508,-0002332,14:57:14.786264
0.195498,+0000014,-0000016,-0000003,+0000031,-0000084,+0004145,-0000778,+0000508,-0002332,14:57:14.786264
0.195780,-0000004,-0000010,-0000008,+0000049,-0000106,+0004146,-0000760,+0000488,-0002360,14:57:14.786264
0.195999,+0000021,-0000016,-0000010,+0000035,-0000086,+0004135,-0000760,+0000488,-0002360,14:57:14.786264
0.196334,+0000008,-0000013,+0000008,+0000047,-0000093,+0004152,-0000760,+0000488,-0002360,14:57:14.786264
0.196670,+0000021,-0000016,-0000016,+0000055,-0000093,+0004158,-0001016,+0000480,-0002345,14:57:14.786264
0.197002,-0000001,-0000026,-0000007,+0000062,-0000089,+0004158,-0001016,+0000480,-0002345,14:57:14.786264
0.197332,+0000011,-0000025,+0000003,+0000052,-0000106,+0004170,-0001016,+0000480,-0002345,14:57:14.786264
0.197666,+0000028,-0000034,-0000013,+0000057,-0000072,+0004160,-0000782,+0000520,-0002348,14:57:14.786264
0.197999,+0000025,-0000042,-0000005,+0000049,-0000095,+0004144,-0000782,+0000520,-0002348,14:57:14.787264
0.198332,+0000011,-0000034,-0000008,+0000058,-0000079,+0004143,-0000782,+0000520,-0002348,14:57:14.787264
0.198664,+0000019,-0000007,-0000007,+0000060,-0000113,+0004136,-0000770,+0000482,-0002314,14:57:14.787264
0.198997,+0000006,-0000016,+0000009,+0000049,-0000082,+0004156,-0000770,+0000482,-0002314,14:57:14.788262
0.199331,+0000008,-0000015,-0000018,+0000058,-0000087,+0004145,-0000770,+0000482,-0002314,14:57:14.788262
0.199664,+0000019,-0000040,-0000003,+0000036,-0000091,+0004132,-0000788,+0000482,-0002331,14:57:14.788262
0.199996,+0000019,-0000039,-0000007,+0000046,-0000079,+0004144,-0000788,+0000482,-0002331,14:57:14.788262
0.200331,+0000024,-0000024,-0000015,+0000045,-0000095,+0004149,-0000788,+0000482,-0002331,14:57:14.788262
0.200663,+0000004,-0000005,-0000004,+0000037,-0000093,+0004150,-0000774,+0000490,-0002333,14:57:14.788262
0.200995,+0000016,-0000035,-0000007,+0000057,-0000091,+0004164,-0000774,+0000490,-0002333,14:57:14.788262
0.201328,+0000025,-0000037,-0000008,+0000065,-0000086,+0004161,-0000774,+0000490,-0002333,14:57:14.788262
0.201661,+0000022,-0000034,-0000005,+0000050,-0000072,+0004174,-0000782,+0000500,-0002306,14:57:14.788262
0.201994,+0000015,-0000040,-0000013,+0000047,-0000088,+0004144,-0000782,+0000500,-0002306,14:57:14.788262
0.202327,+0000006,-0000015,-0000013,+0000058,-0000114,+0004160,-0000782,+0000500,-0002306,14:57:14.788262
0.202660,+0000016,-0000016,-0000008,+0000045,-0000086,+0004165,-0000784,+0000490,-0002315,14:57:14.788262
0.202993,+0000002,-0000018,-0000003,+0000036,-0000107,+0004138,-0000784,+0000490,-0002315,14:57:14.788262
0.203326,+0000018,-0000023,-0000003,+0000051,-0000072,+0004141,-0000784,+0000490,-0002315,14:57:14.788262
0.203659,+0000011,-0000037,-0000013,+0000060,-0000100,+0004147,-0000780,+0000488,-0002335,14:57:14.788262
0.203992,+0000027,-0000016,-0000016,+0000041,-0000090,+0004165,-0000780,+0000488,-0002335,14:57:14.788262
0.204325,+0000003,-0000018,-0000018,+0000036,-0000088,+0004150,-0000780,+0000488,-0002335,14:57:14.788262
0.204658,+0000021,-0000013,+0000003,+0000065,-0000077,+0004162,-0000792,+0000488,-0002322,14:57:14.788262
0.204991,-0000001,-0000015,-0000005,+0000045,-0000109,+0004139,-0000792,+0000488,-0002322,14:57:14.788262
0.205324,+0000024,-0000034,-0000012,+0000031,-0000089,+0004142,-0000792,+0000488,-0002322,14:57:14.788262
0.205657,+0000019,-0000042,-0000016,+0000050,-0000070,+0004154,-0000770,+0000496,-0002325,14:57:14.788262
0.205990,+0000021,-0000027,+0000004,+0000041,-0000073,+0004137,-0000770,+0000496,-0002325,14:57:14.788262
0.206323,+0000016,-0000018,-0000021,+0000044,-0000080,+0004154,-0000770,+0000496,-0002325,14:57:14.788262
0.206656,+0000002,-0000015,+0000004,+0000039,-0000091,+0004165,-0000778,+0000488,-0002366,14:57:14.788262
0.206989,+0000016,-0000016,-0000016,+0000046,-0000074,+0004150,-0000778,+0000488,-0002366,14:57:14.788262
0.207322,+0000017,-0000029,-0000010,+0000041,-0000076,+0004175,-0000778,+0000488,-0002366,14:57:14.788262
0.207655,+0000008,-0000037,-0000011,+0000052,-0000108,+0004145,-0000784,+0000472,-0002330,14:57:14.788262
0.207988,+0000031,-0000028,-0000026,+0000047,-0000096,+0004158,-0000784,+0000472,-0002330,14:57:14.788262
0.208321,+0000008,-0000005,+0000011,+0000054,-0000079,+0004159,-0000784,+0000472,-0002330,14:57:14.788262
0.208655,+0000016,-0000027,-0000018,+0000048,-0000095,+0004152,-0000790,+0000500,-0002323,14:57:14.788262
0.208987,+0000000,+0000001,+0000001,+0000043,-0000082,+0004156,-0000790,+0000500,-0002323,14:57:14.788262
0.209320,+0000032,-0000032,-0000019,+0000052,-0000085,+0004154,-0000790,+0000500,-0002323,14:57:14.788262
0.209653,+0000027,-0000034,-0000007,+0000032,-0000091,+0004150,-0000802,+0000504,-0002356,14:57:14.788262
0.209986,+0000016,-0000031,-0000015,+0000047,-0000079,+0004163,-0000802,+0000504,-0002356,14:57:14.788262
0.210319,+0000014,-0000018,-0000016,+0000059,-0000067,+0004173,-0000802,+0000504,-0002356,14:57:14.788262
0.210652,+0000005,-0000003,-0000014,+0000064,-0000096,+0004146,-0000794,+0000482,-0002325,14:57:14.788262
0.210985,+0000013,-0000026,-0000013,+0000047,-0000100,+0004153,-0000794,+0000482,-0002325,14:57:14.788262
0.211318,+0000024,-0000029,+0000003,+0000044,-0000087,+0004146,-0000794,+0000482,-0002325,14:57:14.788262
0.211651,+0000020,-0000028,-0000015,+0000064,-0000096,+0004150,-0000794,+0000500,-0002354,14:57:14.788262
0.211984,+0000010,-0000034,-0000004,+0000043,-0000078,+0004152,-0000794,+0000500,-0002354,14:57:14.788262
0.212317,+0000008,-0000010,-0000008,+0000064,-0000096,+0004129,-0000794,+0000500,-0002354,14:57:14.788262
0.212650,-0000001,-0000015,-0000007,+0000049,-0000094,+0004143,-0000800,+0000496,-0002347,14:57:14.788262
0.212983,+0000020,-0000031,-0000004,+0000035,-0000102,+0004122,-0000800,+0000496,-0002347,14:57:14.788262
0.213316,+0000005,-0000029,-0000010,+0000045,-0000079,+0004139,-0000800,+0000496,-0002347,14:57:14.788262
0.213649,+0000030,-0000029,-0000016,+0000069,-0000081,+0004158,-0000796,+0000494,-0002322,14:57:14.788262
0.213982,+0000008,-0000031,-0000011,+0000066,-0000106,+0004146,-0000796,+0000494,-0002322,14:57:14.788262
0.214315,+0000007,-0000004,-0000005,+0000042,-0000084,+0004149,-0000796,+0000494,-0002322,14:57:14.788262
0.214648,+0000016,-0000018,-0000004,+0000046,-0000096,+0004152,-0000794,+0000498,-0002332,14:57:14.788262
0.214981,+0000018,-0000021,-0000004,+0000060,-0000088,+0004145,-0000794,+0000498,-0002332,14:57:14.788262
0.215314,+0000009,-0000040,-0000008,+0000055,-0000078,+0004132,-0000794,+0000498,-0002332,14:57:14.788262
0.215647,+0000042,-0000029,-0000021,+0000057,-0000094,+0004150,-0000792,+0000506,-0002324,14:57:14.788262
0.215980,+0000022,-0000016,-0000005,+0000038,-0000103,+0004134,-0000792,+0000506,-0002324,14:57:14.788262
0.216313,+0000014,-0000020,-0000008,+0000039,-0000106,+0004142,-0000792,+0000506,-0002324,14:57:14.788262
0.216646,+0000010,-0000026,-0000002,+0000047,-0000090,+0004158,-0000786,+0000486,-0002347,14:57:14.788262
0.216979,+0000005,-0000015,-0000004,+0000030,-0000101,+0004144,-0000786,+0000486,-0002347,14:57:14.788262
0.217312,+0000030,-0000049,-0000010,+0000052,-0000087,+0004137,-0000786,+0000486,-0002347,14:57:14.788262
0.217645,+0000022,-0000015,-0000006,+0000050,-0000090,+0004128,-0000788,+0000494,-0002327,14:57:14.788262
0.217978,-0000001,-0000029,-0000012,+0000044,-0000093,+0004149,-0000788,+0000494,-0002327,14:57:14.788262
0.218311,+0000021,-0000012,-0000007,+0000039,-0000080,+0004143,-0000788,+0000494,-0002327,14:57:14.789262
0.218644,+0000010,-0000010,-0000005,+0000049,-0000073,+0004151,-0000780,+0000502,-0002322,14:57:14.789262
0.218977,+0000021,-0000036,-0000011,+0000054,-0000087,+0004167,-0000780,+0000502,-0002322,14:57:14.789262
0.219310,+0000022,-0000040,-0000013,+0000061,-0000084,+0004146,-0000780,+0000502,-0002322,14:57:14.789262
0.219643,+0000011,-0000016,-0000004,+0000062,-0000082,+0004164,-0000786,+0000500,-0002344,14:57:14.789262
0.219976,+0000014,-0000022,-0000014,+0000055,-0000069,+0004149,-0000786,+0000500,-0002344,14:57:14.789262
0.220309,+0000016,-0000010,-0000015,+0000058,-0000096,+0004150,-0000786,+0000500,-0002344,14:57:14.789262
0.220642,-0000012,-0000023,-0000002,+0000057,-0000092,+0004161,-0000790,+0000492,-0002343,14:57:14.789262
0.220975,+0000022,-0000023,-0000013,+0000043,-0000107,+0004150,-0000790,+0000492,-0002343,14:57:14.789262
0.221308,+0000021,-0000027,-0000003,+0000045,-0000078,+0004157,-0000790,+0000492,-0002343,14:57:14.789262
0.221641,+0000019,-0000035,-0000019,+0000057,-0000084,+0004168,-0000778,+0000488,-0002327,14:57:14.789262
0.221974,+0000010,-0000018,-0000003,+0000044,-0000088,+0004144,-0000778,+0000488,-0002327,14:57:14.789262
0.222307,-0000003,-0000002,-0000005,+0000037,-0000096,+0004143,-0000778,+0000488,-0002327,14:57:14.789262
0.222640,+0000013,-0000023,-0000002,+0000057,-0000086,+0004139,-0000788,+0000480,-0002341,14:57:14.789262
0.222973,+0000023,-0000032,-0000007,+0000058,-0000084,+0004134,-0000788,+0000480,-0002341,14:57:14.789262
0.223306,+0000026,-0000032,-0000018,+0000048,-0000102,+0004158,-0000788,+0000480,-0002341,14:57:14.789262
0.223639,+0000010,-0000026,-0000022,+0000053,-0000097,+0004145,-0000790,+0000484,-0002345,14:57:14.789262
0.223972,+0000016,-0000024,-0000004,+0000041,-0000078,+0004156,-0000790,+0000484,-0002345,14:57:14.789262
0.224305,-0000001,-0000007,-0000011,+0000031,-0000089,+0004153,-0000790,+0000484,-0002345,14:57:14.789262
0.224638,+0000007,-0000015,-0000006,+0000065,-0000095,+0004151,-0000792,+0000480,-0002320,14:57:14.789262
0.224971,+0000019,-0000024,-0000005,+0000048,-0000089,+0004138,-0000792,+0000480,-0002320,14:57:14.789262
0.225304,+0000025,-0000032,-0000023,+0000060,-0000109,+0004152,-0000792,+0000480,-0002320,14:57:14.789262
0.225637,+0000006,-0000029,-0000005,+0000031,-0000085,+0004139,-0000780,+0000474,-0002349,14:57:14.789262
0.225970,+0000002,-0000008,-0000005,+0000049,-0000092,+0004144,-0000780,+0000474,-0002349,14:57:14.789262
0.226303,+0000004,-0000016,-0000014,+0000028,-0000100,+0004149,-0000780,+0000474,-0002349,14:57:14.789262
0.226636,+0000015,-0000023,+0000003,+0000052,-0000077,+0004165,-0000778,+0000494,-0002350,14:57:14.789262
0.226969,+0000024,-0000026,-0000008,+0000053,-0000094,+0004155,-0000778,+0000494,-0002350,14:57:14.789262
0.227302,+0000016,-0000043,-0000018,+0000039,-0000074,+0004160,-0000778,+0000494,-0002350,14:57:14.789262
0.227635,+0000019,-0000018,-0000002,+0000057,-0000075,+0004140,-0000780,+0000482,-0002329,14:57:14.789262
0.227968,-0000011,-0000003,+0000001,+0000061,-0000104,+0004129,-0000780,+0000482,-0002329,14:57:14.789262
0.228301,-0000003,-0000007,-0000010,+0000063,-0000092,+0004140,-0000780,+0000482,-0002329,14:57:14.789262
0.228634,+0000013,-0000024,+0000003,+0000065,-0000107,+0004138,-0000790,+0000500,-0002320,14:57:14.789262
0.228967,+0000022,-0000042,-0000018,+0000062,-0000074,+0004156,-0000790,+0000500,-0002320,14:57:14.789262
0.229300,+0000024,-0000047,-0000013,+0000048,-0000095,+0004135,-0000790,+0000500,-0002320,14:57:14.789262
0.229633,+0000011,-0000019,-0000007,+0000039,-0000080,+0004137,-0000792,+0000498,-0002333,14:57:14.789262
0.229966,+0000010,-0000016,-0000013,+0000037,-0000077,+0004167,-0000792,+0000498,-0002333,14:57:14.789262
0.230299,+0000015,-0000011,+0000005,+0000041,-0000069,+0004147,-0000792,+0000498,-0002333,14:57:14.792263
0.230632,+0000015,-0000016,-0000010,+0000046,-0000082,+0004161,-0000786,+0000482,-0002328,14:57:14.792263
0.230965,+0000030,-0000051,-0000006,+0000019,-0000084,+0004159,-0000786,+0000482,-0002328,14:57:14.792263
0.231298,+0000014,-0000018,-0000007,+0000053,-0000078,+0004153,-0000786,+0000482,-0002328,14:57:14.792263
0.231631,+0000007,-0000013,-0000021,+0000049,-0000086,+0004155,-0000810,+0000494,-0002331,14:57:14.792263
0.231964,-0000014,-0000003,+0000008,+0000032,-0000093,+0004139,-0000810,+0000494,-0002331,14:57:14.792263
0.232297,+0000018,-0000005,-0000010,+0000062,-0000087,+0004147,-0000810,+0000494,-0002331,14:57:14.792263
0.232630,+0000007,-0000040,-0000018,+0000029,-0000096,+0004151,-0000802,+0000484,-0002362,14:57:14.792263
0.232963,+0000030,-0000037,-0000011,+0000050,-0000104,+0004156,-0000802,+0000484,-0002362,14:57:14.792263
0.233296,+0000005,-0000034,-0000010,+0000058,-0000065,+0004149,-0000802,+0000484,-0002362,14:57:14.792263
0.233629,+0000019,-0000019,-0000003,+0000048,-0000083,+0004142,-0000790,+0000484,-0002366,14:57:14.792263
0.233962,+0000007,-0000023,-0000013,+0000066,-0000105,+0004140,-0000790,+0000484,-0002366,14:57:14.792263
0.234295,-0000003,-0000007,+0000007,+0000052,-0000100,+0004150,-0000790,+0000484,-0002366,14:57:14.792263
0.234628,+0000029,-0000035,-0000007,+0000042,-0000080,+0004137,-0000792,+0000498,-0002312,14:57:14.792263
0.234961,+0000025,-0000036,-0000004,+0000054,-0000058,+0004154,-0000792,+0000498,-0002312,14:57:14.792263
0.235294,+0000022,-0000020,-0000018,+0000027,-0000063,+0004148,-0000792,+0000498,-0002312,14:57:14.792263
0.235627,+0000005,-0000019,-0000002,+0000039,-0000090,+0004139,-0000802,+0000476,-0002342,14:57:14.792263
0.235960,+0000014,-0000008,-0000008,+0000060,-0000083,+0004151,-0000802,+0000476,-0002342,14:57:14.792263
0.236293,+0000019,-0000015,+0000003,+0000031,-0000085,+0004148,-0000802,+0000476,-0002342,14:57:14.792263
0.236626,+0000032,-0000032,-0000018,+0000041,-0000083,+0004161,-0000796,+0000488,-0002333,14:57:14.792263
0.236959,+0000030,-0000034,-0000005,+0000048,-0000096,+0004151,-0000796,+0000488,-0002333,14:57:14.792263
0.237292,+0000013,-0000013,+0000000,+0000038,-0000093,+0004167,-0000796,+0000488,-0002333,14:57:14.792263
0.237625,+0000013,-0000024,-0000021,+0000044,-0000087,+0004144,-0000796,+0000502,-0002343,14:57:14.792263
0.237958,+0000011,-0000015,-0000010,+0000045,-0000105,+0004148,-0000796,+0000502,-0002343,14:57:14.792263
0.238291,+0000015,-0000023,-0000011,+0000042,-0000088,+0004151,-0000796,+0000502,-0002343,14:57:14.792263
0.238624,+0000008,-0000026,-0000004,+0000072,-0000082,+0004146,-0000786,+0000504,-0002347,14:57:14.792263
0.238957,+0000035,-0000035,-0000022,+0000051,-0000099,+0004130,-0000786,+0000504,-0002347,14:57:14.792263
0.239290,+0000013,-0000035,-0000010,+0000052,-0000093,+0004153,-0000786,+0000504,-0002347,14:57:14.792263
0.239623,+0000012,-0000007,-0000003,+0000051,-0000076,+0004148,-0000798,+0000490,-0002328,14:57:14.792263
0.239956,+0000021,-0000013,-0000002,+0000049,-0000087,+0004139,-0000798,+0000490,-0002328,14:57:14.792263
0.240289,-0000003,-0000013,-0000006,+0000049,-0000077,+0004154,-0000798,+0000490,-0002328,14:57:14.792263
0.240622,+0000041,-0000042,-0000019,+0000042,-0000075,+0004132,-0000788,+0000488,-0002352,14:57:14.792263
0.240955,+0000002,-0000026,+0000001,+0000042,-0000096,+0004144,-0000788,+0000488,-0002352,14:57:14.792263
0.241288,+0000019,-0000045,-0000018,+0000055,-0000097,+0004181,-0000788,+0000488,-0002352,14:57:14.792263
0.241621,-0000008,+0000004,+0000014,+0000036,-0000084,+0004142,-0000796,+0000490,-0002347,14:57:14.792263
0.241954,+0000011,-0000021,-0000016,+0000042,-0000085,+0004138,-0000796,+0000490,-0002347,14:57:14.792263
0.242287,+0000007,-0000019,-0000003,+0000043,-0000104,+0004148,-0000796,+0000490,-0002347,14:57:14.792263
0.242620,+0000016,-0000043,-0000014,+0000040,-0000080,+0004155,-0000790,+0000488,-0002335,14:57:14.825580
0.242955,+0000025,-0000037,-0000007,+0000035,-0000078,+0004140,-0000790,+0000488,-0002335,14:57:14.825580
0.243289,+0000008,-0000015,-0000003,+0000039,-0000089,+0004146,-0000790,+0000488,-0002335,14:57:14.825580
0.243626,+0000008,-0000018,-0000003,+0000053,-0000086,+0004163,-0000794,+0000482,-0002334,14:57:14.825580
0.244099,+0000011,-0000019,-0000018,+0000032,-0000085,+0004142,-0000794,+0000482,-0002334,14:57:14.825580
0.244285,+0000019,-0000019,-0000018,+0000032,-0000085,+0004142,-0000794,+0000482,-0002334,14:57:14.825580
0.244666,+0000022,-0000024,-0000013,+0000033,-0000068,+0004137,-0000796,+0000494,-0002356,14:57:14.825580
0.245098,-0000002,-0000002,-0000007,+0000060,-0000085,+0004144,-0000796,+0000494,-0002356,14:57:14.825580
0.245287,+0000019,-0000042,-0000005,+0000053,-0000083,+0004165,-0000796,+0000494,-0002356,14:57:14.825580
0.245621,+0000016,-0000035,-0000018,+0000046,-0000114,+0004162,-0000792,+0000478,-0002349,14:57:14.825580
0.245955,+0000016,-0000012,-0000002,+0000047,-0000085,+0004154,-0000792,+0000478,-0002349,14:57:14.825580
0.246284,+0000013,-0000044,-0000015,+0000036,-0000092,+0004170,-0000792,+0000478,-0002349,14:57:14.825580
0.246616,+0000027,-0000020,-0000011,+0000042,-0000089,+0004148,-0000794,+0000474,-0002366,14:57:14.825580
0.246949,+0000013,-0000023,-0000005,+0000055,-0000077,+0004142,-0000794,+0000474,-0002366,14:57:14.825580
0.247282,+0000000,-0000011,-0000011,+0000037,-0000091,+0004146,-0000794,+0000474,-0002366,14:57:14.825580
0.247615,+0000011,-0000026,-0000010,+0000049,-0000092,+0004164,-0000796,+0000496,-0002325,14:57:14.825580
0.247987,+0000005,+0000001,-0000011,+0000046,-0000082,+0004121,-0000796,+0000496,-0002325,14:57:14.825580
0.248281,+0000027,-0000043,+0000003,+0000037,-0000099,+0004138,-0000796,+0000496,-0002325,14:57:14.825580
0.248614,+0000018,-0000034,-0000008,+0000042,-0000094,+0004161,-0000796,+0000490,-0002347,14:57:14.825580
0.248947,+0000021,-0000026,-0000014,+0000042,-0000091,+0004154,-0000796,+0000490,-0002347,14:57:14.825580
0.249280,+0000002,-0000021,-0000007,+0000051,-0000111,+0004143,-0000796,+0000490,-0002347,14:57:14.825580
0.249613,+0000006,-0000013,-0000012,+0000042,-0000086,+0004149,-0000768,+0000488,-0002331,14:57:14.825580
0.249946,+0000011,-0000015,+0000001,+0000067,-0000079,+0004139,-0000768,+0000488,-0002331,14:57:14.825580
0.250279,+0000026,-0000037,-0000021,+0000037,-0000110,+0004152,-0000768,+0000488,-0002331,14:57:14.825580
0.250612,+0000016,-0000042,-0000002,+0000045,-0000081,+0004150,-0000806,+0000474,-0002343,14:57:14.825580
0.250945,+0000016,-0000016,-0000011,+0000055,-0000096,+0004156,-0000806,+0000474,-0002343,14:57:14.825580
0.251278,+0000002,-0000027,-0000008,+0000064,-0000107,+0004139,-0000806,+0000474,-0002343,14:57:14.825580
0.251611,+0000010,-0000020,-0000014,+0000045,-0000088,+0004130,-0000808,+0000482,-0002337,14:57:14.825580
0.251944,-0000003,-0000010,+0000004,+0000065,-0000088,+0004152,-0000808,+0000482,-0002337,14:57:14.825580
0.252277,+0000027,-0000029,-0000018,+0000041,-0000078,+0004159,-0000808,+0000482,-0002337,14:57:14.825580
0.252610,+0000019,-0000039,+0000001,+0000055,-0000094,+0004175,-0000788,+0000490,-0002330,14:57:14.825580
0.252943,+0000019,-0000024,-0000014,+0000053,-0000092,+0004143,-0000788,+0000490,-0002330,14:57:14.825580
0.253276,+0000005,-0000015,-0000005,+0000052,-0000105,+0004134,-0000788,+0000490,-0002330,14:57:14.825580
0.253609,+0000003,-0000013,-0000013,+0000058,-0000086,+0004148,-0000780,+0000496,-0002339,14:57:14.825580
0.253942,+0000013,-0000016,-0000013,+0000048,-0000075,+0004156,-0000780,+0000496,-0002339,14:57:14.825580
0.254275,+0000030,-0000040,-0000013,+0000050,-0000079,+0004156,-0000780,+0000496,-0002339,14:57:14.825580
0.254608,+0000027,-0000040,-0000018,+0000049,-0000076,+0004152,-0000790,+0000474,-0002334,14:57:14.825580
0.254941,+0000008,-0000020,-0000001,+0000059,-0000097,+0004130,-0000790,+0000474,-0002334,14:57:14.825580
0.255274,-0000008,+0000004,+0000011,+0000045,-0000091,+0004159,-0000790,+0000474,-0002334,14:57:14.826583
0.255607,+0000010,-0000016,-0000019,+0000043,-0000089,+0004161,-0000780,+0000496,-0002336,14:57:14.826583
0.255940,+0000016,-0000032,-0000010,+0000057,-0000082,+0004141,-0000780,+0000496,-0002336,14:57:14.826583
0.256273,+0000025,-0000030,-0000015,+0000074,-0000081,+0004158,-0000780,+0000496,-0002336,14:57:14.826583
0.256681,+0000010,-0000026,-0000007,+0000049,-0000084,+0004122,-0000788,+0000494,-0002328,14:57:14.826583
0.256939,+0000007,-0000035,-0000008,+0000062,-0000112,+0004152,-0000788,+0000494,-0002328,14:57:14.826583
0.257272,+0000028,-0000024,-0000015,+0000051,-0000098,+0004150,-0000788,+0000494,-0002328,14:57:14.826583
0.257605,+0000000,-0000011,-0000006,+0000051,-0000082,+0004159,-0000792,+0000494,-0002351,14:57:14.826583
0.257938,+0000028,-0000031,-0000018,+0000051,-0000089,+0004161,-0000792,+0000494,-0002351,14:57:14.826583
0.258417,+0000013,-0000015,-0000008,+0000058,-0000094,+0004147,-0000792,+0000494,-0002351,14:57:14.826583
0.258606,+0000008,-0000016,+0000000,+0000021,-0000098,+0004139,-0000788,+0000492,-0002347,14:57:14.826583
0.258940,+0000014,-0000008,-0000016,+0000033,-0000090,+0004149,-0000788,+0000492,-0002347,14:57:14.826583
0.259270,+0000008,-0000029,-0000004,+0000045,-0000096,+0004153,-0000788,+0000492,-0002347,14:57:14.829586
0.259604,+0000021,-0000034,-0000013,+0000040,-0000098,+0004158,-0000788,+0000470,-0002370,14:57:14.829586
0.259936,+0000022,-0000029,-0000004,+0000049,-0000097,+0004145,-0000788,+0000470,-0002370,14:57:14.829586
0.260269,+0000022,-0000039,-0000008,+0000038,-0000097,+0004191,-0000788,+0000470,-0002370,14:57:14.829586
0.260603,+0000011,-0000032,-0000016,+0000037,-0000083,+0004157,-0000784,+0000492,-0002322,14:57:14.829586
0.260937,+0000016,-0000016,-0000011,+0000055,-0000083,+0004146,-0000784,+0000492,-0002322,14:57:14.829586
0.261269,+0000007,-0000021,-0000002,+0000034,-0000072,+0004157,-0000784,+0000492,-0002322,14:57:14.833584
0.261601,+0000013,-0000018,-0000003,+0000049,-0000087,+0004135,-0000784,+0000488,-0002356,14:57:14.833584
0.261935,+0000014,-0000029,-0000002,+0000042,-0000116,+0004143,-0000784,+0000488,-0002356,14:57:14.833584
0.262267,+0000006,-0000034,-0000013,+0000053,-0000085,+0004144,-0000784,+0000488,-0002356,14:57:14.833584
0.262602,+0000014,-0000034,-0000005,+0000044,-0000098,+0004163,-0000790,+0000496,-0002357,14:57:14.833584
0.262933,+0000013,-0000023,-0000021,+0000049,-0000088,+0004160,-0000790,+0000496,-0002357,14:57:14.833584
0.263266,+0000003,-0000012,+0000007,+0000041,-0000102,+0004139,-0000790,+0000496,-0002357,14:57:14.833584
0.263599,+0000013,-0000023,+0000004,+0000069,-0000086,+0004151,-0000786,+0000500,-0002353,14:57:14.833584
0.263932,+0000014,-0000039,-0000013,+0000024,-0000085,+0004125,-0000786,+0000500,-0002353,14:57:14.833584
0.264265,+0000030,-0000035,-0000005,+0000038,-0000088,+0004144,-0000786,+0000500,-0002353,14:57:14.833584
0.264598,+0000000,-0000026,-0000003,+0000048,-0000093,+0004152,-0000782,+0000482,-0002363,14:57:14.833584
0.264931,+0000016,-0000015,-0000015,+0000051,-0000090,+0004150,-0000782,+0000482,-0002363,14:57:14.833584
0.265264,+0000007,-0000010,-0000008,+0000043,-0000089,+0004149,-0000782,+0000482,-0002363,14:57:14.833584
0.265597,+0000014,-0000029,-0000011,+0000059,-0000085,+0004159,-0000788,+0000480,-0002337,14:57:14.833584
0.265930,+0000010,-0000024,+0000004,+0000067,-0000078,+0004136,-0000788,+0000480,-0002337,14:57:14.833584
0.266263,+0000043,-0000045,-0000021,+0000066,-0000095,+0004150,-0000788,+0000480,-0002337,14:57:14.833584
0.266596,+0000013,-0000024,-0000003,+0000061,-0000098,+0004160,-0000772,+0000496,-0002319,14:57:14.833584
0.266929,+0000024,-0000013,-0000010,+0000048,-0000097,+0004149,-0000772,+0000496,-0002319,14:57:14.833584
0.267262,+0000005,-0000012,-0000008,+0000031,-0000074,+0004167,-0000772,+0000496,-0002319,14:57:14.833584
0.267595,+0000014,-0000024,-0000001,+0000034,-0000086,+0004158,-0000794,+0000500,-0002332,14:57:14.833584
0.267928,+0000027,-0000036,-0000018,+0000051,-0000086,+0004142,-0000794,+0000500,-0002332,14:57:14.833584
0.268261,+0000019,-0000036,+0000000,+0000044,-0000108,+0004157,-0000794,+0000500,-0002332,14:57:14.833584
0.268594,+0000010,-0000026,-0000018,+0000054,-0000096,+0004148,-0000784,+0000478,-0002334,14:57:14.833584
0.268927,+0000005,-0000002,-0000019,+0000042,-0000081,+0004173,-0000784,+0000478,-0002334,14:57:14.833584
0.269260,+0000010,-0000021,-0000005,+0000038,-0000086,+0004154,-0000784,+0000478,-0002334,14:57:14.833584
0.269593,+0000020,-0000028,-0000005,+0000053,-0000075,+0004157,-0000786,+0000480,-0002349,14:57:14.833584
0.269926,+0000019,-0000027,-0000005,+0000048,-0000074,+0004126,-0000786,+0000480,-0002349,14:57:14.833584
0.270259,+0000025,-0000036,-0000016,+0000064,-0000087,+0004148,-0000786,+0000480,-0002349,14:57:14.833584
0.270592,+0000013,-0000021,-0000015,+0000039,-0000078,+0004148,-0000784,+0000488,-0002352,14:57:14.833584
0.270925,+0000006,-0000008,+0000001,+0000059,-0000075,+0004155,-0000784,+0000488,-0002352,14:57:14.833584
0.271258,+0000009,-0000023,-0000013,+0000045,-0000094,+0004151,-0000784,+0000488,-0002352,14:57:14.833584
0.271591,+0000010,-0000013,-0000007,+0000058,-0000097,+0004169,-0000760,+0000494,-0002342,14:57:14.833584
0.271924,+0000029,-0000040,-0000013,+0000056,-0000110,+0004162,-0000760,+0000494,-0002342,14:57:14.833584
0.272257,+0000029,-0000019,-0000006,+0000033,-0000079,+0004150,-0000760,+0000494,-0002342,14:57:14.833584
0.272590,-0000005,-0000013,-0000005,+0000044,-0000094,+0004135,-0000788,+0000490,-0002368,14:57:14.833584
0.272923,+0000007,-0000018,-0000013,+0000041,-0000080,+0004149,-0000788,+0000490,-0002368,14:57:14.833584
0.273256,+0000004,-0000010,+0000007,+0000055,-0000098,+0004179,-0000788,+0000490,-0002368,14:57:14.833584
0.273589,+0000022,-0000035,-0000021,+0000037,-0000071,+0004155,-0000776,+0000496,-0002361,14:57:14.833584
0.273922,+0000010,-0000037,-0000018,+0000049,-0000069,+0004156,-0000776,+0000496,-0002361,14:57:14.833584
0.274255,+0000017,-0000024,-0000013,+0000048,-0000073,+0004149,-0000776,+0000496,-0002361,14:57:14.833584
0.274588,+0000010,-0000031,-0000007,+0000045,-0000084,+0004153,-0000792,+0000486,-0002334,14:57:14.833584
0.274921,+0000006,+0000003,-0000005,+0000029,-0000082,+0004149,-0000792,+0000486,-0002334,14:57:14.833584
0.275254,+0000007,-0000025,-0000007,+0000044,-0000110,+0004142,-0000792,+0000486,-0002334,14:57:14.833584
0.275587,+0000019,-0000037,-0000003,+0000059,-0000090,+0004152,-0000772,+0000494,-0002340,14:57:14.833584
0.275920,+0000018,-0000027,-0000021,+0000023,-0000092,+0004157,-0000772,+0000494,-0002340,14:57:14.833584
0.276253,+0000014,-0000029,-0000008,+0000061,-0000075,+0004159,-0000772,+0000494,-0002340,14:57:14.836594
0.276586,+0000006,-0000016,-0000008,+0000075,-0000076,+0004149,-0000778,+0000496,-0002316,14:57:14.836594
0.276919,-0000007,-0000003,+0000002,+0000051,-0000097,+0004133,-0000778,+0000496,-0002316,14:57:14.836594
0.277252,+0000018,-0000018,-0000005,+0000054,-0000084,+0004144,-0000778,+0000496,-0002316,14:57:14.836594
0.277585,+0000020,-0000043,-0000005,+0000038,-0000067,+0004132,-0000760,+0000502,-0002354,14:57:14.836594
0.277918,+0000024,-0000040,-0000024,+0000057,-0000069,+0004161,-0000760,+0000502,-0002354,14:57:14.836594
0.278251,+0000014,-0000019,+0000001,+0000074,-0000075,+0004151,-0000760,+0000502,-0002354,14:57:14.836594
0.278584,+0000003,-0000013,-0000014,+0000063,-0000065,+0004152,-0000792,+0000494,-0002341,14:57:14.836594
0.278917,+0000003,-0000008,-0000007,+0000052,-0000103,+0004154,-0000792,+0000494,-0002341,14:57:14.836594
0.279250,+0000005,-0000011,+0000001,+0000050,-0000083,+0004152,-0000792,+0000494,-0002341,14:57:14.836594
0.279583,+0000024,-0000043,-0000016,+0000023,-0000111,+0004163,-0000786,+0000486,-0002331,14:57:14.836594
0.279916,+0000019,-0000031,-0000010,+0000033,-0000081,+0004169,-0000786,+0000486,-0002331,14:57:14.836594
0.280249,+0000016,-0000029,-0000016,+0000049,-0000080,+0004150,-0000786,+0000486,-0002331,14:57:14.836594
0.280582,+0000007,-0000022,-0000013,+0000033,-0000111,+0004145,-0000786,+0000476,-0002335,14:57:14.836594
0.280915,+0000000,-0000013,-0000003,+0000027,-0000099,+0004139,-0000786,+0000476,-0002335,14:57:14.836594
0.281248,+0000011,-0000024,-0000014,+0000063,-0000090,+0004153,-0000786,+0000476,-0002335,14:57:14.836594
0.281581,+0000022,-0000037,-0000005,+0000054,-0000102,+0004149,-0000776,+0000480,-0002347,14:57:14.836594
0.281914,+0000014,-0000032,-0000013,+0000039,-0000074,+0004143,-0000776,+0000480,-0002347,14:57:14.836594
0.282247,+0000018,-0000035,-0000016,+0000033,-0000092,+0004152,-0000776,+0000480,-0002347,14:57:14.836594
0.282580,+0000003,+0000001,-0000018,+0000047,-0000111,+0004137,-0000794,+0000488,-0002331,14:57:14.836594
0.282913,+0000013,-0000019,+0000006,+0000037,-0000084,+0004148,-0000794,+0000488,-0002331,14:57:14.836594
0.283246,+0000014,-0000031,-0000016,+0000034,-0000093,+0004138,-0000794,+0000488,-0002331,14:57:14.836594
0.283579,+0000028,-0000034,-0000021,+0000048,-0000074,+0004148,-0000784,+0000482,-0002338,14:57:14.836594
0.283912,+0000024,-0000026,+0000001,+0000039,-0000079,+0004144,-0000784,+0000482,-0002338,14:57:14.836594
0.284245,+0000014,-0000024,-0000005,+0000054,-0000090,+0004161,-0000784,+0000482,-0002338,14:57:14.836594
0.284610,+0000012,-0000016,-0000012,+0000049,-0000084,+0004165,-0000788,+0000490,-0002343,14:57:14.836594
0.284911,+0000006,-0000028,+0000000,+0000030,-0000091,+0004167,-0000788,+0000490,-0002343,14:57:14.836594
0.285244,+0000010,-0000003,-0000013,+0000053,-0000102,+0004157,-0000788,+0000490,-0002343,14:57:14.836594
0.285577,+0000028,-0000042,-0000003,+0000047,-0000091,+0004134,-0000774,+0000494,-0002317,14:57:14.836594
0.285910,+0000014,-0000015,-0000008,+0000034,-0000067,+0004131,-0000774,+0000494,-0002317,14:57:14.836594
0.286243,-0000003,-0000018,-0000011,+0000044,-0000093,+0004143,-0000774,+0000494,-0002317,14:57:14.837896
0.286576,+0000017,-0000013,+0000000,+0000040,-0000090,+0004147,-0000768,+0000492,-0002335,14:57:14.837896
0.286909,+0000016,-0000034,+0000000,+0000067,-0000100,+0004152,-0000768,+0000492,-0002335,14:57:14.837896
0.287242,+0000011,-0000021,-0000007,+0000048,-0000097,+0004154,-0000768,+0000492,-0002335,14:57:14.837896
0.287575,+0000025,-0000035,-0000010,+0000054,-0000074,+0004132,-0000776,+0000486,-0002347,14:57:14.837896
0.287908,+0000011,-0000021,+0000001,+0000051,-0000077,+0004130,-0000776,+0000486,-0002347,14:57:14.837896
0.288241,+0000017,-0000027,-0000027,+0000062,-0000078,+0004145,-0000776,+0000486,-0002347,14:57:14.837896
0.288574,+0000008,-0000021,+0000004,+0000052,-0000085,+0004151,-0000774,+0000492,-0002358,14:57:14.837896
0.288907,+0000010,-0000023,-0000003,+0000046,-0000101,+0004160,-0000774,+0000492,-0002358,14:57:14.837896
0.289240,+0000018,-0000015,-0000018,+0000056,-0000078,+0004155,-0000774,+0000492,-0002358,14:57:14.838898
0.289573,+0000033,-0000029,-0000008,+0000044,-0000089,+0004134,-0000774,+0000500,-0002336,14:57:14.838898
0.289906,+0000003,-0000021,-0000004,+0000047,-0000083,+0004154,-0000774,+0000500,-0002336,14:57:14.838898
0.290239,+0000011,-0000021,-0000005,+0000061,-0000097,+0004166,-0000774,+0000500,-0002336,14:57:14.838898
0.290572,+0000011,-0000012,-0000015,+0000065,-0000074,+0004157,-0000774,+0000486,-0002361,14:57:14.838898
0.290905,+0000008,-0000015,+0000001,+0000045,-0000067,+0004140,-0000774,+0000486,-0002361,14:57:14.838898
0.291238,+0000019,-0000048,-0000008,+0000060,-0000090,+0004145,-0000774,+0000486,-0002361,14:57:14.838898
0.291571,+0000016,-0000026,-0000013,+0000039,-0000088,+0004140,-0000786,+0000494,-0002349,14:57:14.838898
0.291904,+0000021,-0000031,-0000021,+0000038,-0000084,+0004159,-0000786,+0000494,-0002349,14:57:14.838898
0.292237,+0000011,-0000007,+0000000,+0000042,-0000100,+0004147,-0000786,+0000494,-0002349,14:57:14.838898
0.292570,+0000000,-0000013,-0000010,+0000040,-0000105,+0004142,-0000782,+0000482,-0002333,14:57:14.888246
0.292905,+0000011,-0000020,+0000000,+0000039,-0000094,+0004144,-0000782,+0000482,-0002333,14:57:14.888246
0.293239,+0000016,-0000029,+0000000,+0000048,-0000087,+0004138,-0000782,+0000482,-0002333,14:57:14.888246
0.293574,+0000022,-0000029,-0000021,+0000047,-0000079,+0004162,-0000786,+0000484,-0002330,14:57:14.888246
0.294078,+0000008,-0000024,+0000000,+0000039,-0000105,+0004164,-0000786,+0000484,-0002330,14:57:14.888246
0.294256,+0000008,-0000024,-0000014,+0000066,-0000080,+0004146,-0000786,+0000484,-0002330,14:57:14.888246
0.294572,+0000006,-0000045,-0000002,+0000060,-0000094,+0004169,-0000768,+0000484,-0002359,14:57:14.892245
0.294916,+0000030,-0000016,-0000013,+0000062,-0000083,+0004152,-0000768,+0000484,-0002359,14:57:14.892245
0.295236,+0000009,-0000026,-0000013,+0000039,-0000064,+0004142,-0000768,+0000484,-0002359,14:57:14.892245
0.295614,+0000003,-0000010,-0000005,+0000056,-0000108,+0004152,-0000786,+0000486,-0002328,14:57:14.892245
0.295901,+0000019,-0000024,-0000013,+0000034,-0000093,+0004150,-0000786,+0000486,-0002328,14:57:14.892245
0.296329,+0000000,-0000011,-0000012,+0000044,-0000098,+0004143,-0000786,+0000486,-0002328,14:57:14.892245
0.296571,-0000003,-0000018,+0000001,+0000036,-0000102,+0004156,-0000800,+0000492,-0002349,14:57:14.892245
0.296902,+0000016,-0000013,-0000008,+0000028,-0000080,+0004153,-0000800,+0000492,-0002349,14:57:14.892245
0.297233,+0000028,-0000043,-0000010,+0000042,-0000085,+0004155,-0000800,+0000492,-0002349,14:57:14.892245
0.297567,+0000016,-0000032,-0000007,+0000062,-0000094,+0004158,-0000796,+0000504,-0002337,14:57:14.892245
0.297898,-0000001,-0000005,+0000003,+0000059,-0000091,+0004179,-0000796,+0000504,-0002337,14:57:14.892245
0.298232,+0000011,-0000015,-0000011,+0000040,-0000089,+0004161,-0000796,+0000504,-0002337,14:57:14.892245
0.298564,-0000003,-0000013,+0000003,+0000056,-0000081,+0004146,-0000780,+0000502,-0002340,14:57:14.892245
0.298898,+0000024,-0000034,-0000013,+0000056,-0000072,+0004166,-0000780,+0000502,-0002340,14:57:14.892245
0.299231,+0000008,-0000034,+0000000,+0000050,-0000095,+0004145,-0000780,+0000502,-0002340,14:57:14.892245
0.299564,+0000008,-0000029,-0000013,+0000048,-0000092,+0004147,-0000794,+0000510,-0002341,14:57:14.892245
0.299898,+0000003,-0000013,-0000011,+0000046,-0000093,+0004161,-0000794,+0000510,-0002341,14:57:14.892245
0.300234,+0000010,-0000008,-0000010,+0000042,-0000087,+0004118,-0000794,+0000510,-0002341,14:57:14.892245
0.300562,+0000016,-0000023,-0000007,+0000043,-0000078,+0004142,-0000776,+0000488,-0002347,14:57:14.892245
0.300895,+0000018,-0000029,-0000013,+0000038,-0000096,+0004154,-0000776,+0000488,-0002347,14:57:14.893244
0.301228,+0000011,-0000042,-0000019,+0000054,-0000084,+0004120,-0000776,+0000488,-0002347,14:57:14.893244
0.301561,+0000011,-0000021,-0000010,+0000045,-0000090,+0004142,-0000792,+0000492,-0002328,14:57:14.893244
0.301894,+0000006,-0000024,-0000010,+0000031,-0000085,+0004150,-0000792,+0000492,-0002328,14:57:14.893244
0.302227,+0000009,-0000008,-0000003,+0000050,-0000087,+0004139,-0000792,+0000492,-0002328,14:57:14.893244
0.302560,+0000014,-0000014,-0000010,+0000046,-0000106,+0004152,-0000776,+0000490,-0002354,14:57:14.893244
0.302893,+0000016,-0000029,-0000016,+0000041,-0000080,+0004169,-0000776,+0000490,-0002354,14:57:14.893244
0.303226,+0000019,-0000026,-0000005,+0000042,-0000101,+0004161,-0000776,+0000490,-0002354,14:57:14.893244
0.303559,+0000013,-0000020,-0000021,+0000046,-0000084,+0004144,-0000788,+0000504,-0002338,14:57:14.893244
0.303892,+0000014,-0000032,-0000019,+0000052,-0000112,+0004146,-0000788,+0000504,-0002338,14:57:14.893244
0.304225,-0000011,+0000001,+0000007,+0000052,-0000118,+0004128,-0000788,+0000504,-0002338,14:57:14.893244
0.304558,+0000019,-0000014,-0000018,+0000047,-0000112,+0004147,-0000772,+0000486,-0002330,14:57:14.893244
0.304891,+0000024,-0000039,+0000000,+0000045,-0000095,+0004155,-0000772,+0000486,-0002330,14:57:14.893244
0.305224,+0000016,-0000021,-0000004,+0000036,-0000079,+0004163,-0000772,+0000486,-0002330,14:57:14.893244
0.305557,+0000013,-0000028,-0000021,+0000051,-0000078,+0004154,-0000784,+0000494,-0002312,14:57:14.893244
0.305890,+0000008,-0000022,-0000007,+0000066,-0000096,+0004159,-0000784,+0000494,-0002312,14:57:14.893244
0.306223,+0000000,-0000008,+0000000,+0000026,-0000070,+0004142,-0000784,+0000494,-0002312,14:57:14.893244
0.306556,+0000010,-0000029,-0000008,+0000065,-0000090,+0004149,-0000776,+0000484,-0002365,14:57:14.893244
0.306889,+0000022,-0000031,-0000004,+0000069,-0000083,+0004156,-0000776,+0000484,-0002365,14:57:14.893244
0.307222,+0000024,-0000034,-0000010,+0000054,-0000085,+0004145,-0000776,+0000484,-0002365,14:57:14.893244
0.307555,+0000011,-0000031,-0000016,+0000061,-0000076,+0004151,-0000778,+0000488,-0002357,14:57:14.893244
0.307888,-0000003,-0000008,-0000005,+0000054,-0000098,+0004148,-0000778,+0000488,-0002357,14:57:14.893244
0.308221,+0000002,+0000005,-0000003,+0000039,-0000069,+0004144,-0000778,+0000488,-0002357,14:57:14.893244
0.308554,+0000016,-0000028,-0000013,+0000044,-0000095,+0004156,-0000786,+0000490,-0002336,14:57:14.893244
0.308887,+0000024,-0000036,-0000007,+0000055,-0000068,+0004149,-0000786,+0000490,-0002336,14:57:14.893244
0.309220,+0000013,-0000036,-0000016,+0000043,-0000087,+0004136,-0000786,+0000490,-0002336,14:57:14.893244
0.309553,+0000024,-0000028,-0000010,+0000035,-0000110,+0004167,-0000790,+0000492,-0002366,14:57:14.893244
0.309886,-0000009,-0000004,-0000003,+0000040,-0000098,+0004166,-0000790,+0000492,-0002366,14:57:14.893244
0.310219,+0000002,-0000018,-0000002,+0000057,-0000085,+0004140,-0000790,+0000492,-0002366,14:57:14.893244
0.310577,+0000014,-0000026,-0000008,+0000049,-0000092,+0004167,-0000788,+0000476,-0002351,14:57:14.893244
0.310885,+0000013,-0000027,-0000011,+0000058,-0000085,+0004157,-0000788,+0000476,-0002351,14:57:14.893244
0.311218,+0000027,-0000032,-0000010,+0000034,-0000073,+0004143,-0000788,+0000476,-0002351,14:57:14.893244
0.311551,+0000014,-0000026,-0000001,+0000047,-0000094,+0004157,-0000780,+0000492,-0002296,14:57:14.893244
0.311884,+0000006,-0000002,-0000005,+0000051,-0000115,+0004148,-0000780,+0000492,-0002296,14:57:14.893244
0.312217,+0000010,-0000024,-0000014,+0000046,-0000085,+0004164,-0000780,+0000492,-0002296,14:57:14.893244
0.312550,+0000016,-0000036,-0000004,+0000038,-0000087,+0004144,-0000788,+0000486,-0002353,14:57:14.893244
0.312883,+0000026,-0000034,-0000016,+0000054,-0000082,+0004139,-0000788,+0000486,-0002353,14:57:14.893244
0.313216,+0000002,-0000016,-0000021,+0000038,-0000078,+0004131,-0000788,+0000486,-0002353,14:57:14.893244
0.313549,-0000005,-0000016,+0000003,+0000054,-0000089,+0004163,-0000780,+0000492,-0002345,14:57:14.893244
0.313882,+0000008,-0000015,-0000018,+0000039,-0000094,+0004167,-0000780,+0000492,-0002345,14:57:14.893244
0.314215,+0000016,-0000010,-0000007,+0000050,-0000098,+0004176,-0000780,+0000492,-0002345,14:57:14.893244
0.314548,+0000022,-0000032,-0000005,+0000049,-0000082,+0004146,-0000768,+0000486,-0002327,14:57:14.893244
0.314881,+0000022,-0000039,-0000002,+0000056,-0000083,+0004133,-0000768,+0000486,-0002327,14:57:14.893244
0.315214,+0000024,-0000028,-0000016,+0000071,-0000087,+0004144,-0000768,+0000486,-0002327,14:57:14.893244
0.315547,-0000001,-0000013,-0000010,+0000065,-0000092,+0004144,-0000788,+0000482,-0002329,14:57:14.893244
0.315880,+0000019,-0000019,-0000007,+0000033,-0000073,+0004142,-0000788,+0000482,-0002329,14:57:14.893244
0.316213,+0000014,-0000011,+0000001,+0000039,-0000098,+0004142,-0000788,+0000482,-0002329,14:57:14.893244
0.316559,+0000013,-0000043,-0000008,+0000033,-0000086,+0004145,-0000774,+0000498,-0002317,14:57:14.893244
0.316879,+0000015,-0000020,-0000001,+0000056,-0000080,+0004138,-0000774,+0000498,-0002317,14:57:14.893244
0.317212,+0000008,-0000024,-0000021,+0000044,-0000095,+0004164,-0000774,+0000498,-0002317,14:57:14.893244
0.317558,+0000018,-0000016,-0000002,+0000047,-0000066,+0004142,-0000780,+0000500,-0002338,14:57:14.893244
0.317878,-0000011,-0000008,+0000001,+0000056,-0000072,+0004129,-0000780,+0000500,-0002338,14:57:14.893244
0.318211,+0000021,-0000021,-0000005,+0000042,-0000093,+0004142,-0000780,+0000500,-0002338,14:57:14.893244
0.318557,+0000027,-0000034,-0000003,+0000030,-0000081,+0004130,-0000778,+0000482,-0002342,14:57:14.893244
0.318877,+0000019,-0000040,-0000016,+0000040,-0000077,+0004138,-0000778,+0000482,-0002342,14:57:14.893244
0.319210,+0000015,-0000015,-0000016,+0000051,-0000099,+0004137,-0000778,+0000482,-0002342,14:57:14.893244
0.319556,+0000008,-0000009,+0000001,+0000041,-0000086,+0004157,-0000794,+0000476,-0002337,14:57:14.893244
0.319877,+0000013,-0000026,-0000016,+0000056,-0000089,+0004147,-0000794,+0000476,-0002337,14:57:14.893244
0.320209,+0000024,-0000032,-0000026,+0000036,-0000093,+0004159,-0000794,+0000476,-0002337,14:57:14.893244
0.320555,+0000014,-0000042,-0000007,+0000070,-0000080,+0004134,-0000772,+0000490,-0002335,14:57:14.893244
0.320877,+0000025,-0000036,-0000007,+0000038,-0000107,+0004158,-0000772,+0000490,-0002335,14:57:14.893244
0.321208,+0000010,-0000016,-0000016,+0000042,-0000116,+0004159,-0000772,+0000490,-0002335,14:57:14.893244
0.321548,+0000003,+0000000,+0000006,+0000048,-0000084,+0004146,-0000786,+0000496,-0002338,14:57:14.893244
0.321874,-0000011,-0000010,+0000004,+0000047,-0000109,+0004165,-0000786,+0000496,-0002338,14:57:14.893244
0.322207,+0000024,-0000044,-0000015,+0000051,-0000110,+0004161,-0000786,+0000496,-0002338,14:57:14.893244
0.322540,+0000027,-0000036,-0000004,+0000061,-0000098,+0004149,-0000782,+0000488,-0002339,14:57:14.893244
0.322874,+0000015,-0000031,-0000010,+0000044,-0000093,+0004143,-0000782,+0000488,-0002339,14:57:14.893244
0.323206,+0000027,-0000031,-0000013,+0000050,-0000079,+0004145,-0000782,+0000488,-0002339,14:57:14.893244
0.323539,+0000002,+0000003,+0000006,+0000055,-0000088,+0004156,-0000772,+0000488,-0002341,14:57:14.893244
0.323874,+0000008,-0000016,-0000019,+0000043,-0000077,+0004151,-0000772,+0000488,-0002341,14:57:14.893244
0.324205,+0000014,-0000037,-0000006,+0000040,-0000078,+0004144,-0000772,+0000488,-0002341,14:57:14.893244
0.324538,+0000027,-0000034,-0000013,+0000051,-0000067,+0004124,-0000786,+0000484,-0002338,14:57:14.893244
0.324874,+0000011,-0000034,-0000005,+0000056,-0000090,+0004132,-0000786,+0000484,-0002338,14:57:14.893244
0.325204,+0000004,+0000004,-0000011,+0000046,-0000081,+0004182,-0000786,+0000484,-0002338,14:57:14.893244
0.325537,+0000005,-0000002,+0000011,+0000051,-0000098,+0004153,-0000772,+0000470,-0002357,14:57:14.893244
0.325870,+0000014,-0000026,-0000008,+0000060,-0000091,+0004161,-0000772,+0000470,-0002357,14:57:14.893244
0.326203,+0000018,-0000024,-0000005,+0000043,-0000078,+0004151,-0000772,+0000470,-0002357,14:57:14.893244
0.326536,+0000025,-0000042,-0000008,+0000048,-0000092,+0004173,-0000772,+0000492,-0002322,14:57:14.893244
0.326870,+0000016,-0000030,+0000001,+0000047,-0000080,+0004166,-0000772,+0000492,-0002322,14:57:14.893244
0.327202,+0000017,-0000013,-0000013,+0000044,-0000079,+0004157,-0000772,+0000492,-0002322,14:57:14.893244
0.327535,+0000011,-0000018,-0000012,+0000054,-0000080,+0004144,-0000774,+0000482,-0002329,14:57:14.893244
0.327870,+0000003,-0000013,+0000006,+0000052,-0000097,+0004164,-0000774,+0000482,-0002329,14:57:14.893244
0.328201,+0000024,-0000039,-0000021,+0000041,-0000095,+0004132,-0000774,+0000482,-0002329,14:57:14.893244
0.328534,+0000027,-0000032,-0000011,+0000055,-0000081,+0004160,-0000770,+0000494,-0002337,14:57:14.893244
0.328870,+0000011,-0000024,-0000013,+0000043,-0000075,+0004171,-0000770,+0000494,-0002337,14:57:14.893244
0.329200,+0000005,-0000034,-0000008,+0000059,-0000095,+0004155,-0000770,+0000494,-0002337,14:57:14.893244
0.329533,+0000004,-0000007,-0000004,+0000055,-0000094,+0004149,-0000780,+0000474,-0002344,14:57:14.893244
0.329870,+0000004,-0000010,+0000001,+0000048,-0000093,+0004145,-0000780,+0000474,-0002344,14:57:14.893244
0.330199,+0000018,-0000045,+0000000,+0000053,-0000100,+0004146,-0000780,+0000474,-0002344,14:57:14.894240
0.330532,+0000018,-0000024,-0000008,+0000055,-0000077,+0004160,-0000778,+0000486,-0002322,14:57:14.894240
0.330870,+0000018,-0000031,-0000016,+0000060,-0000091,+0004142,-0000778,+0000486,-0002322,14:57:14.894240
0.331198,+0000011,-0000015,+0000001,+0000045,-0000088,+0004140,-0000778,+0000486,-0002322,14:57:14.894240
0.331531,+0000022,-0000018,-0000015,+0000043,-0000092,+0004127,-0000792,+0000490,-0002324,14:57:14.894240
0.331869,+0000006,-0000018,+0000003,+0000045,-0000095,+0004161,-0000792,+0000490,-0002324,14:57:14.894240
0.332197,+0000014,-0000040,-0000014,+0000047,-0000088,+0004142,-0000792,+0000490,-0002324,14:57:14.894240
0.332530,+0000025,-0000032,-0000008,+0000031,-0000094,+0004146,-0000780,+0000482,-0002340,14:57:14.894240
0.332868,+0000030,-0000028,-0000011,+0000050,-0000075,+0004154,-0000780,+0000482,-0002340,14:57:14.894240
0.333196,-0000004,-0000024,-0000007,+0000038,-0000120,+0004140,-0000780,+0000482,-0002340,14:57:14.894240
0.333529,+0000011,-0000013,-0000014,+0000043,-0000104,+0004160,-0000766,+0000490,-0002328,14:57:14.894240
0.333868,+0000016,-0000035,-0000018,+0000052,-0000086,+0004156,-0000766,+0000490,-0002328,14:57:14.894240
0.334195,+0000003,-0000024,+0000001,+0000047,-0000089,+0004156,-0000766,+0000490,-0002328,14:57:14.894240
0.334528,+0000017,-0000027,-0000008,+0000044,-0000084,+0004137,-0000790,+0000496,-0002318,14:57:14.894240
0.334867,+0000020,-0000029,-0000013,+0000050,-0000084,+0004137,-0000790,+0000496,-0002318,14:57:14.894240
0.335194,+0000021,-0000016,-0000013,+0000063,-0000091,+0004136,-0000790,+0000496,-0002318,14:57:14.895255
0.335527,+0000015,-0000010,-0000007,+0000054,-0000085,+0004160,-0000782,+0000488,-0002353,14:57:14.895255
0.335866,+0000005,-0000010,+0000003,+0000030,-0000099,+0004139,-0000782,+0000488,-0002353,14:57:14.895255
0.336193,+0000026,-0000039,-0000010,+0000043,-0000086,+0004142,-0000782,+0000488,-0002353,14:57:14.895255
0.336526,+0000024,-0000045,-0000014,+0000062,-0000103,+0004150,-0000780,+0000492,-0002334,14:57:14.895255
0.336865,+0000005,-0000020,+0000001,+0000035,-0000083,+0004150,-0000780,+0000492,-0002334,14:57:14.895255
0.337192,-0000011,-0000008,-0000010,+0000034,-0000091,+0004154,-0000780,+0000492,-0002334,14:57:14.895255
0.337525,+0000024,-0000026,-0000007,+0000050,-0000092,+0004158,-0000786,+0000498,-0002349,14:57:14.895255
0.337864,+0000016,-0000020,-0000007,+0000050,-0000079,+0004146,-0000786,+0000498,-0002349,14:57:14.895255
0.338191,+0000022,-0000042,-0000016,+0000045,-0000084,+0004151,-0000786,+0000498,-0002349,14:57:14.895255
0.338524,+0000013,-0000018,-0000007,+0000057,-0000093,+0004158,-0000814,+0000492,-0002346,14:57:14.895255
0.338863,+0000011,-0000010,+0000003,+0000042,-0000078,+0004162,-0000814,+0000492,-0002346,14:57:14.895255
0.339190,+0000008,-0000018,-0000012,+0000047,-0000082,+0004165,-0000814,+0000492,-0002346,14:57:14.895255
0.339523,+0000010,-0000018,+0000006,+0000054,-0000092,+0004148,-0000802,+0000484,-0002349,14:57:14.895255
0.339862,+0000022,-0000026,-0000010,+0000061,-0000086,+0004162,-0000802,+0000484,-0002349,14:57:14.895255
0.340189,+0000021,-0000042,-0000013,+0000050,-0000091,+0004158,-0000802,+0000484,-0002349,14:57:14.895255
0.340522,+0000013,-0000023,-0000013,+0000050,-0000065,+0004146,-0000808,+0000492,-0002347,14:57:14.895255
0.340861,+0000000,-0000013,-0000007,+0000040,-0000068,+0004149,-0000808,+0000492,-0002347,14:57:14.895255
0.341188,+0000005,-0000015,-0000005,+0000041,-0000066,+0004164,-0000808,+0000492,-0002347,14:57:14.896240
0.341521,+0000016,-0000034,-0000002,+0000036,-0000086,+0004162,-0000798,+0000494,-0002352,14:57:14.896240
0.341854,+0000016,-0000020,-0000005,+0000042,-0000088,+0004149,-0000798,+0000494,-0002352,14:57:14.896240
0.342187,+0000032,-0000034,-0000013,+0000037,-0000088,+0004154,-0000798,+0000494,-0002352,14:57:14.896240
0.342520,+0000019,-0000034,-0000016,+0000027,-0000082,+0004159,-0000808,+0000480,-0002342,14:57:14.896240
0.342855,+0000010,-0000007,-0000005,+0000043,-0000082,+0004164,-0000808,+0000480,-0002342,14:57:14.924320
0.343186,+0000007,-0000016,-0000012,+0000064,-0000072,+0004143,-0000808,+0000480,-0002342,14:57:14.924320
0.343522,+0000008,-0000018,+0000004,+0000036,-0000084,+0004151,-0000806,+0000480,-0002334,14:57:14.924320
0.344091,+0000003,+0000011,+0000006,+0000041,-0000085,+0004145,-0000806,+0000480,-0002334,14:57:14.924320
0.344275,+0000014,-0000032,-0000023,+0000041,-0000085,+0004145,-0000806,+0000480,-0002334,14:57:14.924320
0.344648,+0000005,-0000011,-0000002,+0000042,-0000095,+0004176,-0000812,+0000478,-0002336,14:57:14.924320
0.344920,+0000017,-0000019,-0000002,+0000042,-0000095,+0004150,-0000812,+0000478,-0002336,14:57:14.924320
0.345189,+0000010,-0000019,-0000010,+0000045,-0000105,+0004147,-0000812,+0000478,-0002336,14:57:14.924320
0.345539,+0000005,-0000015,+0000001,+0000048,-0000084,+0004137,-0000776,+0000484,-0002348,14:57:14.924320
0.345851,+0000016,-0000013,-0000018,+0000047,-0000070,+0004177,-0000776,+0000484,-0002348,14:57:14.924320
0.346184,+0000011,-0000023,-0000005,+0000045,-0000087,+0004174,-0000776,+0000484,-0002348,14:57:14.924320
0.346516,+0000010,-0000005,-0000005,+0000036,-0000088,+0004158,-0000784,+0000482,-0002335,14:57:14.924320
0.346849,+0000000,-0000010,-0000008,+0000048,-0000096,+0004141,-0000784,+0000482,-0002335,14:57:14.924320
0.347182,+0000007,-0000008,-0000004,+0000050,-0000083,+0004161,-0000784,+0000482,-0002335,14:57:14.924320
0.347515,+0000016,-0000019,-0000002,+0000045,-0000080,+0004164,-0000798,+0000494,-0002363,14:57:14.924320
0.347848,+0000007,-0000020,-0000012,+0000057,-0000078,+0004138,-0000798,+0000494,-0002363,14:57:14.924320
0.348181,+0000024,-0000044,-0000008,+0000062,-0000082,+0004150,-0000798,+0000494,-0002363,14:57:14.924320
0.348514,+0000005,-0000010,-0000004,+0000050,-0000087,+0004164,-0000794,+0000496,-0002325,14:57:14.924320
0.348847,+0000025,-0000024,-0000021,+0000059,-0000095,+0004163,-0000794,+0000496,-0002325,14:57:14.924320
0.349180,-0000003,+0000003,+0000009,+0000063,-0000096,+0004184,-0000794,+0000496,-0002325,14:57:14.924320
0.349513,+0000024,-0000035,-0000031,+0000082,-0000077,+0004137,-0000800,+0000486,-0002331,14:57:14.924320
0.349846,+0000003,-0000026,+0000000,+0000060,-0000084,+0004131,-0000800,+0000486,-0002331,14:57:14.924320
0.350179,+0000032,-0000035,-0000014,+0000026,-0000079,+0004144,-0000800,+0000486,-0002331,14:57:14.924320
0.350512,+0000022,-0000045,-0000013,+0000051,-0000095,+0004147,-0000770,+0000480,-0002325,14:57:14.924320
0.350845,+0000003,+0000005,-0000003,+0000049,-0000089,+0004121,-0000770,+0000480,-0002325,14:57:14.924320
0.351178,+0000002,+0000000,+0000005,+0000050,-0000057,+0004136,-0000770,+0000480,-0002325,14:57:14.924320
0.351511,+0000018,-0000026,-0000011,+0000037,-0000088,+0004144,-0000784,+0000492,-0002353,14:57:14.924320
0.351844,+0000030,-0000043,-0000015,+0000057,-0000089,+0004161,-0000784,+0000492,-0002353,14:57:14.924320
0.352177,+0000013,-0000032,-0000002,+0000039,-0000092,+0004133,-0000784,+0000492,-0002353,14:57:14.924320
0.352510,+0000008,-0000023,-0000010,+0000056,-0000089,+0004149,-0000792,+0000486,-0002334,14:57:14.924320
0.352843,-0000006,-0000012,+0000003,+0000056,-0000101,+0004135,-0000792,+0000486,-0002334,14:57:14.924320
0.353176,+0000018,-0000031,-0000018,+0000064,-0000096,+0004165,-0000792,+0000486,-0002334,14:57:14.924320
0.353509,+0000000,-0000018,+0000000,+0000044,-0000105,+0004167,-0000806,+0000484,-0002339,14:57:14.924320
0.353842,+0000021,-0000030,-0000010,+0000050,-0000084,+0004134,-0000806,+0000484,-0002339,14:57:14.924320
0.354210,+0000013,-0000014,-0000008,+0000032,-0000090,+0004157,-0000806,+0000484,-0002339,14:57:14.924320
0.354521,+0000025,-0000027,-0000013,+0000055,-0000078,+0004144,-0000810,+0000498,-0002341,14:57:14.924320
0.354841,+0000021,-0000026,-0000010,+0000047,-0000086,+0004134,-0000810,+0000498,-0002341,14:57:14.924320
0.355174,+0000013,-0000027,-0000005,+0000036,-0000074,+0004153,-0000810,+0000498,-0002341,14:57:14.924320
0.355507,+0000016,-0000018,-0000003,+0000054,-0000100,+0004151,-0000788,+0000494,-0002352,14:57:14.924320
0.355840,+0000039,-0000029,-0000005,+0000031,-0000111,+0004161,-0000788,+0000494,-0002352,14:57:14.924320
0.356173,+0000018,-0000026,-0000008,+0000039,-0000098,+0004157,-0000788,+0000494,-0002352,14:57:14.924320
0.356528,+0000019,-0000021,-0000014,+0000037,-0000113,+0004154,-0000776,+0000490,-0002340,14:57:14.924320
0.356839,+0000004,-0000019,-0000007,+0000050,-0000106,+0004176,-0000776,+0000490,-0002340,14:57:14.924320
0.357172,+0000018,-0000022,-0000008,+0000033,-0000109,+0004147,-0000776,+0000490,-0002340,14:57:14.924320
0.357505,+0000030,-0000040,-0000006,+0000048,-0000090,+0004157,-0000790,+0000494,-0002335,14:57:14.924320
0.357861,+0000006,-0000024,-0000013,+0000030,-0000074,+0004160,-0000790,+0000494,-0002335,14:57:14.924320
0.358386,+0000014,-0000031,-0000008,+0000057,-0000084,+0004137,-0000790,+0000494,-0002335,14:57:14.924320
0.358579,+0000014,-0000031,-0000008,+0000074,-0000082,+0004132,-0000800,+0000498,-0002337,14:57:14.924320
0.358844,+0000014,-0000012,-0000007,+0000074,-0000082,+0004148,-0000800,+0000498,-0002337,14:57:14.924320
0.359173,+0000002,-0000002,-0000008,+0000022,-0000067,+0004181,-0000800,+0000498,-0002337,14:57:14.924320
0.359505,+0000019,-0000044,-0000012,+0000045,-0000096,+0004149,-0000782,+0000486,-0002349,14:57:14.924320
0.359836,+0000011,-0000029,-0000011,+0000050,-0000082,+0004154,-0000782,+0000486,-0002349,14:57:14.924320
0.360169,+0000013,-0000023,-0000010,+0000041,-0000080,+0004146,-0000782,+0000486,-0002349,14:57:14.924320
0.360502,+0000008,-0000022,-0000003,+0000039,-0000101,+0004166,-0000796,+0000460,-0002362,14:57:14.924320
0.360836,+0000005,-0000007,-0000016,+0000059,-0000092,+0004163,-0000796,+0000460,-0002362,14:57:14.924320
0.361169,-0000003,-0000018,+0000004,+0000054,-0000092,+0004162,-0000796,+0000460,-0002362,14:57:14.924320
0.361502,+0000035,-0000038,-0000013,+0000057,-0000098,+0004139,-0000770,+0000480,-0002364,14:57:14.924320
0.361836,+0000011,-0000019,+0000004,+0000048,-0000107,+0004160,-0000770,+0000480,-0002364,14:57:14.924320
0.362168,+0000029,-0000040,-0000018,+0000032,-0000097,+0004153,-0000770,+0000480,-0002364,14:57:14.924320
0.362500,+0000007,-0000005,-0000013,+0000038,-0000082,+0004161,-0000774,+0000488,-0002377,14:57:14.924320
0.362833,+0000010,-0000013,-0000013,+0000064,-0000083,+0004162,-0000774,+0000488,-0002377,14:57:14.924320
0.363166,+0000021,-0000027,+0000004,+0000051,-0000093,+0004163,-0000774,+0000488,-0002377,14:57:14.924320
0.363499,+0000010,-0000037,-0000010,+0000052,-0000090,+0004157,-0000778,+0000492,-0002343,14:57:14.924320
0.363832,+0000026,-0000036,-0000008,+0000037,-0000091,+0004157,-0000778,+0000492,-0002343,14:57:14.924320
0.364165,+0000014,-0000026,-0000023,+0000030,-0000100,+0004154,-0000778,+0000492,-0002343,14:57:14.924320
0.364498,+0000003,-0000018,-0000019,+0000061,-0000094,+0004128,-0000790,+0000500,-0002360,14:57:14.924320
0.364831,+0000003,+0000006,+0000006,+0000063,-0000080,+0004157,-0000790,+0000500,-0002360,14:57:14.924320
0.365164,+0000022,-0000039,-0000021,+0000063,-0000088,+0004152,-0000790,+0000500,-0002360,14:57:14.924320
0.365497,+0000022,-0000031,-0000004,+0000052,-0000095,+0004146,-0000782,+0000482,-0002346,14:57:14.924320
0.365830,+0000024,-0000029,-0000011,+0000053,-0000108,+0004140,-0000782,+0000482,-0002346,14:57:14.924320
0.366163,+0000017,-0000021,-0000010,+0000046,-0000101,+0004139,-0000782,+0000482,-0002346,14:57:14.924320
0.366496,+0000010,-0000010,-0000003,+0000047,-0000075,+0004139,-0000786,+0000490,-0002342,14:57:14.924320
0.366829,+0000016,-0000021,-0000013,+0000047,-0000089,+0004138,-0000786,+0000490,-0002342,14:57:14.924320
0.367162,+0000013,-0000029,-0000007,+0000037,-0000104,+0004122,-0000786,+0000490,-0002342,14:57:14.924320
0.367495,+0000019,-0000039,-0000021,+0000037,-0000083,+0004140,-0000788,+0000486,-0002325,14:57:14.924320
0.367828,+0000014,-0000035,-0000018,+0000042,-0000085,+0004129,-0000788,+0000486,-0002325,14:57:14.924320
0.368161,+0000009,-0000008,-0000010,+0000049,-0000107,+0004154,-0000788,+0000486,-0002325,14:57:14.924320
0.368494,+0000016,+0000003,-0000001,+0000059,-0000086,+0004141,-0000778,+0000496,-0002341,14:57:14.929833
0.368827,+0000005,-0000032,-0000010,+0000039,-0000101,+0004151,-0000778,+0000496,-0002341,14:57:14.929833
0.369160,+0000033,-0000020,+0000003,+0000032,-0000085,+0004152,-0000778,+0000496,-0002341,14:57:14.929833
0.369493,+0000024,-0000030,-0000013,+0000043,-0000114,+0004144,-0000782,+0000492,-0002360,14:57:14.929833
0.369826,+0000011,-0000029,-0000007,+0000063,-0000108,+0004150,-0000782,+0000492,-0002360,14:57:14.929833
0.370159,+0000014,-0000018,-0000011,+0000039,-0000079,+0004146,-0000782,+0000492,-0002360,14:57:14.929833
0.370492,-0000001,-0000015,+0000003,+0000060,-0000079,+0004160,-0000772,+0000500,-0002333,14:57:14.929833
0.370825,+0000007,-0000021,-0000010,+0000050,-0000076,+0004146,-0000772,+0000500,-0002333,14:57:14.929833
0.371158,+0000024,-0000027,-0000010,+0000058,-0000080,+0004142,-0000772,+0000500,-0002333,14:57:14.929833
0.371491,+0000003,-0000027,-0000016,+0000052,-0000082,+0004148,-0000792,+0000492,-0002323,14:57:14.929833
0.371824,+0000027,-0000026,-0000010,+0000055,-0000086,+0004169,-0000792,+0000492,-0002323,14:57:14.929833
0.372157,-0000004,-0000014,+0000008,+0000050,-0000077,+0004177,-0000792,+0000492,-0002323,14:57:14.929833
0.372490,+0000016,-0000018,-0000018,+0000058,-0000089,+0004165,-0000792,+0000504,-0002320,14:57:14.929833
0.372823,-0000002,-0000015,-0000012,+0000043,-0000099,+0004151,-0000792,+0000504,-0002320,14:57:14.929833
0.373156,+0000014,-0000026,-0000008,+0000043,-0000080,+0004151,-0000792,+0000504,-0002320,14:57:14.929833
0.373489,+0000021,-0000040,-0000011,+0000042,-0000081,+0004155,-0000778,+0000494,-0002341,14:57:14.929833
0.373822,-0000006,-0000010,-0000013,+0000045,-0000087,+0004158,-0000778,+0000494,-0002341,14:57:14.929833
0.374155,+0000014,-0000019,-0000003,+0000055,-0000073,+0004144,-0000778,+0000494,-0002341,14:57:14.929833
0.374488,+0000010,-0000010,-0000008,+0000053,-0000096,+0004160,-0000796,+0000502,-0002327,14:57:14.929833
0.374821,-0000004,-0000023,+0000000,+0000047,-0000080,+0004151,-0000796,+0000502,-0002327,14:57:14.929833
0.375154,+0000024,-0000027,-0000005,+0000052,-0000084,+0004158,-0000796,+0000502,-0002327,14:57:14.929833
0.375487,+0000030,-0000023,-0000012,+0000032,-0000082,+0004137,-0000784,+0000464,-0002373,14:57:14.929833
0.375820,+0000008,-0000024,+0000003,+0000044,-0000076,+0004138,-0000784,+0000464,-0002373,14:57:14.929833
0.376153,+0000021,-0000019,-0000012,+0000053,-0000094,+0004152,-0000784,+0000464,-0002373,14:57:14.929833
0.376486,+0000011,-0000008,+0000009,+0000061,-0000112,+0004161,-0000796,+0000494,-0002316,14:57:14.929833
0.376819,+0000011,-0000038,-0000015,+0000067,-0000083,+0004163,-0000796,+0000494,-0002316,14:57:14.929833
