===BEGIN_METADATA===
"This CSV contains gyroscope, accelerometer, and magnetometer data synced with the test named below."
Test Name: 2026-07-07_150537_01,yyyy-mm-dd_hhmmss_{probe#/nano_id}
Calibrations: (not implemented yet)
===END_METADATA===
===BEGIN_DATA===
Time (sec),Gyro X,Gyro Y,Gyro Z,Accel X,Accel Y,Accel Z,Mag X,Mag Y,Mag Z,Processed_Time
0.000251,+0000003,-0000004,-0000002,+0000052,-0000094,+0004170,-0000810,+0000498,-0002336,15:05:38.427922
0.000583,+0000008,-0000008,-0000005,+0000055,-0000113,+0004160,-0000810,+0000498,-0002336,15:05:38.429136
0.000916,-0000003,-0000005,+0000000,+0000052,-0000099,+0004147,-0000810,+0000498,-0002336,15:05:38.429136
0.001249,+0000009,-0000029,+0000000,+0000065,-0000093,+0004171,-0000814,+0000514,-0002332,15:05:38.429136
0.001582,+0000022,-0000027,-0000024,+0000070,-0000113,+0004166,-0000814,+0000514,-0002332,15:05:38.429136
0.001915,+0000001,-0000035,+0000001,+0000066,-0000085,+0004146,-0000814,+0000514,-0002332,15:05:38.429136
0.002248,+0000025,-0000006,-0000014,+0000045,-0000083,+0004175,-0000808,+0000516,-0002341,15:05:38.429136
0.002581,-0000003,-0000019,-0000005,+0000057,-0000082,+0004148,-0000808,+0000516,-0002341,15:05:38.429136
0.002914,+0000014,-0000030,-0000019,+0000045,-0000095,+0004159,-0000808,+0000516,-0002341,15:05:38.429136
0.003247,+0000014,-0000027,+0000003,+0000050,-0000088,+0004137,-0000806,+0000514,-0002342,15:05:38.429136
0.003580,+0000020,-0000036,-0000010,+0000048,-0000103,+0004145,-0000806,+0000514,-0002342,15:05:38.429136
0.003913,+0000025,-0000032,-0000010,+0000045,-0000080,+0004146,-0000806,+0000514,-0002342,15:05:38.429136
0.004246,-0000002,-0000016,-0000011,+0000042,-0000096,+0004142,-0000814,+0000514,-0002321,15:05:38.429136
0.004579,-0000003,+0000002,-0000002,+0000059,-0000080,+0004159,-0000814,+0000514,-0002321,15:05:38.429136
0.004912,+0000019,-0000021,-0000004,+0000066,-0000081,+0004157,-0000814,+0000514,-0002321,15:05:38.429136
0.005245,+0000020,-0000037,-0000021,+0000069,-0000089,+0004151,-0000820,+0000506,-0002320,15:05:38.429136
0.005578,+0000019,-0000037,+0000000,+0000090,-0000065,+0004150,-0000820,+0000506,-0002320,15:05:38.429136
0.005911,+0000020,-0000032,-0000011,+0000090,-0000100,+0004152,-0000820,+0000506,-0002320,15:05:38.429136
0.006244,+0000005,+0000006,-0000005,+0000062,-0000110,+0004156,-0000820,+0000514,-0002337,15:05:38.429136
0.006577,-0000004,-0000016,+0000001,+0000079,-0000084,+0004149,-0000820,+0000514,-0002337,15:05:38.429136
0.006910,+0000016,-0000034,-0000011,+0000067,-0000082,+0004167,-0000820,+0000514,-0002337,15:05:38.429136
0.007243,+0000014,-0000029,-0000008,+0000064,-0000075,+0004157,-0000830,+0000522,-0002345,15:05:38.429136
0.007576,+0000024,-0000032,-0000015,+0000046,-0000091,+0004132,-0000830,+0000522,-0002345,15:05:38.429136
0.007909,+0000028,-0000011,-0000013,+0000067,-0000077,+0004140,-0000830,+0000522,-0002345,15:05:38.429136
0.008242,+0000003,-0000016,-0000003,+0000069,-0000088,+0004151,-0000810,+0000516,-0002329,15:05:38.429136
0.008575,+0000016,-0000026,-0000010,+0000066,-0000086,+0004150,-0000810,+0000516,-0002329,15:05:38.429136
0.008908,+0000013,-0000024,-0000004,+0000069,-0000078,+0004152,-0000810,+0000516,-0002329,15:05:38.429136
0.009243,+0000022,-0000028,-0000008,+0000073,-0000085,+0004140,-0000824,+0000510,-0002356,15:05:38.429136
0.009575,+0000024,-0000010,-0000008,+0000061,-0000098,+0004138,-0000824,+0000510,-0002356,15:05:38.429136
0.009910,+0000005,-0000015,-0000013,+0000067,-0000078,+0004153,-0000824,+0000510,-0002356,15:05:38.429136
0.010482,+0000021,-0000023,-0000016,+0000065,-0000091,+0004150,-0000802,+0000500,-0002348,15:05:38.429136
0.010778,+0000006,-0000016,-0000002,+0000067,-0000091,+0004169,-0000802,+0000500,-0002348,15:05:38.430141
0.010907,+0000006,-0000016,-0000002,+0000067,-0000091,+0004155,-0000802,+0000500,-0002348,15:05:38.430141
0.011240,+0000020,-0000026,-0000007,+0000067,-0000110,+0004137,-0000812,+0000494,-0002344,15:05:38.430141
0.011572,+0000021,-0000029,-0000018,+0000067,-0000108,+0004175,-0000812,+0000494,-0002344,15:05:38.430141
0.011906,+0000000,-0000011,+0000003,+0000062,-0000094,+0004186,-0000812,+0000494,-0002344,15:05:38.430141
0.012238,+0000022,-0000024,-0000015,+0000063,-0000083,+0004166,-0000810,+0000520,-0002354,15:05:38.430141
0.012571,+0000008,-0000013,-0000007,+0000045,-0000092,+0004175,-0000810,+0000520,-0002354,15:05:38.430141
0.012905,+0000010,-0000009,-0000008,+0000068,-0000071,+0004158,-0000810,+0000520,-0002354,15:05:38.430141
0.013237,+0000024,-0000032,-0000002,+0000050,-0000071,+0004145,-0000822,+0000508,-0002349,15:05:38.430141
0.013570,+0000019,-0000040,-0000015,+0000051,-0000076,+0004158,-0000822,+0000508,-0002349,15:05:38.430141
0.013903,+0000017,-0000024,-0000010,+0000082,-0000098,+0004145,-0000822,+0000508,-0002349,15:05:38.430141
0.014236,+0000013,-0000008,-0000004,+0000056,-0000074,+0004151,-0000816,+0000504,-0002348,15:05:38.430141
0.014570,+0000003,-0000019,+0000001,+0000069,-0000080,+0004160,-0000816,+0000504,-0002348,15:05:38.430141
0.014902,+0000021,-0000034,-0000013,+0000079,-0000075,+0004148,-0000816,+0000504,-0002348,15:05:38.430141
0.015718,+0000019,-0000016,-0000008,+0000043,-0000081,+0004143,-0000798,+0000520,-0002309,15:05:38.430141
0.015984,+0000019,-0000002,+0000008,+0000073,-0000083,+0004167,-0000798,+0000520,-0002309,15:05:38.430141
0.016234,-0000004,-0000002,+0000008,+0000074,-0000109,+0004156,-0000798,+0000520,-0002309,15:05:38.430141
0.016567,+0000010,-0000016,-0000010,+0000081,-0000063,+0004165,-0000806,+0000510,-0002334,15:05:38.431158
0.016900,+0000024,-0000037,-0000007,+0000071,-0000088,+0004153,-0000806,+0000510,-0002334,15:05:38.431158
0.017233,+0000024,-0000036,-0000013,+0000068,-0000091,+0004143,-0000806,+0000510,-0002334,15:05:38.431158
0.017566,+0000025,-0000024,-0000008,+0000060,-0000102,+0004137,-0000808,+0000498,-0002342,15:05:38.431158
0.017899,+0000003,-0000019,-0000016,+0000041,-0000110,+0004149,-0000808,+0000498,-0002342,15:05:38.431158
0.018232,-0000001,-0000009,-0000008,+0000077,-0000100,+0004147,-0000808,+0000498,-0002342,15:05:38.431158
0.018565,+0000024,-0000023,-0000003,+0000071,-0000095,+0004155,-0000816,+0000506,-0002326,15:05:38.431158
0.018898,+0000027,-0000029,-0000003,+0000051,-0000088,+0004151,-0000816,+0000506,-0002326,15:05:38.431158
0.019231,+0000014,-0000040,-0000015,+0000071,-0000102,+0004163,-0000816,+0000506,-0002326,15:05:38.431158
0.019564,+0000019,-0000042,-0000014,+0000058,-0000103,+0004128,-0000818,+0000516,-0002342,15:05:38.431158
0.019897,-0000006,+0000003,+0000006,+0000080,-0000091,+0004155,-0000818,+0000516,-0002342,15:05:38.431158
0.020230,+0000000,-0000010,-0000013,+0000076,-0000078,+0004150,-0000818,+0000516,-0002342,15:05:38.431158
0.020563,+0000010,-0000023,-0000003,+0000054,-0000088,+0004165,-0000820,+0000500,-0002358,15:05:38.431158
0.020896,+0000022,-0000020,-0000005,+0000051,-0000095,+0004143,-0000820,+0000500,-0002358,15:05:38.431158
0.021229,+0000028,-0000045,-0000016,+0000061,-0000081,+0004143,-0000820,+0000500,-0002358,15:05:38.431158
0.021562,+0000013,-0000024,-0000019,+0000055,-0000096,+0004159,-0000808,+0000506,-0002331,15:05:38.431158
0.021895,+0000006,-0000006,-0000005,+0000077,-0000089,+0004152,-0000808,+0000506,-0002331,15:05:38.431158
0.022228,+0000003,-0000018,-0000004,+0000048,-0000085,+0004166,-0000808,+0000506,-0002331,15:05:38.431158
0.022561,+0000006,-0000029,-0000013,+0000091,-0000074,+0004161,-0000820,+0000508,-0002328,15:05:38.431158
0.022894,+0000025,-0000044,-0000008,+0000096,-0000103,+0004178,-0000820,+0000508,-0002328,15:05:38.431158
0.023227,+0000019,-0000032,-0000013,+0000069,-0000071,+0004147,-0000820,+0000508,-0002328,15:05:38.431158
0.023560,+0000010,-0000003,+0000001,+0000070,-0000088,+0004162,-0000820,+0000516,-0002312,15:05:38.431158
0.023893,+0000005,-0000021,-0000016,+0000073,-0000091,+0004145,-0000820,+0000516,-0002312,15:05:38.431158
0.024226,+0000017,-0000002,+0000008,+0000057,-0000098,+0004158,-0000820,+0000516,-0002312,15:05:38.431158
0.024559,+0000020,-0000024,-0000016,+0000062,-0000079,+0004145,-0000802,+0000510,-0002361,15:05:38.431158
0.024892,+0000020,-0000027,-0000016,+0000088,-0000081,+0004155,-0000802,+0000510,-0002361,15:05:38.431158
0.025225,+0000022,-0000029,-0000015,+0000078,-0000092,+0004123,-0000802,+0000510,-0002361,15:05:38.431158
0.025558,+0000016,-0000014,-0000011,+0000080,-0000072,+0004143,-0000812,+0000512,-0002362,15:05:38.431158
0.025891,+0000011,-0000022,-0000002,+0000072,-0000106,+0004138,-0000812,+0000512,-0002362,15:05:38.431158
0.026224,+0000025,-0000015,-0000001,+0000078,-0000088,+0004133,-0000812,+0000512,-0002362,15:05:38.431158
0.026557,+0000003,-0000024,-0000013,+0000070,-0000098,+0004159,-0000800,+0000510,-0002325,15:05:38.431158
0.026890,+0000019,-0000056,-0000013,+0000080,-0000071,+0004155,-0000800,+0000510,-0002325,15:05:38.432167
0.027223,+0000011,-0000013,-0000010,+0000054,-0000076,+0004143,-0000800,+0000510,-0002325,15:05:38.432167
0.027556,+0000020,-0000026,-0000005,+0000047,-0000083,+0004160,-0000816,+0000512,-0002337,15:05:38.432167
0.027889,-0000004,-0000010,-0000010,+0000080,-0000097,+0004159,-0000816,+0000512,-0002337,15:05:38.432167
0.028222,+0000008,-0000008,-0000010,+0000053,-0000090,+0004140,-0000816,+0000512,-0002337,15:05:38.432167
0.028555,+0000008,-0000024,-0000019,+0000062,-0000090,+0004137,-0000818,+0000510,-0002344,15:05:38.432167
0.028888,+0000016,-0000034,+0000005,+0000073,-0000084,+0004153,-0000818,+0000510,-0002344,15:05:38.432167
0.029221,+0000031,-0000029,-0000015,+0000079,-0000072,+0004147,-0000818,+0000510,-0002344,15:05:38.432167
0.029554,+0000006,-0000027,-0000011,+0000062,-0000089,+0004168,-0000816,+0000508,-0002321,15:05:38.432167
0.029887,+0000006,-0000013,-0000006,+0000055,-0000091,+0004185,-0000816,+0000508,-0002321,15:05:38.432167
0.030220,+0000010,-0000015,-0000008,+0000073,-0000075,+0004156,-0000816,+0000508,-0002321,15:05:38.432167
0.030553,+0000017,-0000040,-0000015,+0000063,-0000091,+0004147,-0000794,+0000520,-0002341,15:05:38.432167
0.030886,+0000019,-0000034,-0000002,+0000046,-0000087,+0004146,-0000794,+0000520,-0002341,15:05:38.432167
0.031219,+0000018,-0000040,-0000010,+0000075,-0000085,+0004149,-0000794,+0000520,-0002341,15:05:38.432167
0.031552,+0000000,-0000016,-0000013,+0000065,-0000088,+0004161,-0000830,+0000524,-0002334,15:05:38.432167
0.031885,+0000005,-0000005,-0000010,+0000091,-0000071,+0004135,-0000830,+0000524,-0002334,15:05:38.432167
0.032218,+0000000,-0000015,+0000005,+0000063,-0000057,+0004157,-0000830,+0000524,-0002334,15:05:38.432167
0.032551,+0000033,-0000050,-0000021,+0000080,-0000063,+0004162,-0000812,+0000510,-0002345,15:05:38.432167
0.032884,+0000014,-0000026,-0000005,+0000064,-0000072,+0004129,-0000812,+0000510,-0002345,15:05:38.432167
0.033217,+0000027,-0000029,-0000027,+0000085,-0000108,+0004161,-0000812,+0000510,-0002345,15:05:38.432167
0.033550,-0000001,-0000008,-0000013,+0000082,-0000082,+0004140,-0000816,+0000516,-0002333,15:05:38.432167
0.033883,+0000004,-0000004,-0000003,+0000088,-0000086,+0004135,-0000816,+0000516,-0002333,15:05:38.432167
0.034216,+0000021,-0000027,-0000008,+0000074,-0000076,+0004149,-0000816,+0000516,-0002333,15:05:38.432167
0.034549,+0000016,-0000032,-0000011,+0000091,-0000072,+0004146,-0000820,+0000502,-0002338,15:05:38.432167
0.034882,+0000027,-0000037,-0000008,+0000091,-0000064,+0004137,-0000820,+0000502,-0002338,15:05:38.432167
0.035215,+0000001,-0000016,-0000005,+0000080,-0000086,+0004138,-0000820,+0000502,-0002338,15:05:38.432167
0.035548,+0000011,-0000016,-0000008,+0000077,-0000095,+0004140,-0000814,+0000514,-0002334,15:05:38.432167
0.035881,+0000000,-0000013,-0000005,+0000079,-0000072,+0004154,-0000814,+0000514,-0002334,15:05:38.432167
0.036214,+0000019,-0000018,-0000010,+0000071,-0000074,+0004137,-0000814,+0000514,-0002334,15:05:38.432167
0.036547,+0000011,-0000035,-0000008,+0000079,-0000118,+0004146,-0000820,+0000502,-0002317,15:05:38.432167
0.036880,+0000025,-0000032,-0000012,+0000075,-0000091,+0004152,-0000820,+0000502,-0002317,15:05:38.432167
0.037213,+0000014,-0000002,-0000008,+0000064,-0000105,+0004158,-0000820,+0000502,-0002317,15:05:38.432167
0.037546,+0000016,-0000010,-0000010,+0000062,-0000101,+0004144,-0000802,+0000508,-0002339,15:05:38.432167
0.037879,+0000011,-0000016,-0000005,+0000079,-0000075,+0004166,-0000802,+0000508,-0002339,15:05:38.432167
0.038212,-0000002,-0000018,-0000002,+0000080,-0000082,+0004136,-0000802,+0000508,-0002339,15:05:38.432167
0.038545,+0000025,-0000022,-0000005,+0000073,-0000084,+0004138,-0000796,+0000490,-0002341,15:05:38.432167
0.038878,+0000022,-0000037,-0000016,+0000079,-0000083,+0004174,-0000796,+0000490,-0002341,15:05:38.432167
0.039211,+0000008,-0000013,-0000019,+0000082,-0000101,+0004162,-0000796,+0000490,-0002341,15:05:38.432167
0.039544,-0000001,-0000012,-0000004,+0000077,-0000107,+0004167,-0000802,+0000506,-0002338,15:05:38.432167
0.039877,+0000017,-0000002,-0000005,+0000061,-0000092,+0004150,-0000802,+0000506,-0002338,15:05:38.432167
0.040210,+0000006,-0000029,-0000010,+0000061,-0000079,+0004150,-0000802,+0000506,-0002338,15:05:38.432167
0.040543,+0000014,-0000039,-0000008,+0000045,-0000081,+0004148,-0000796,+0000508,-0002320,15:05:38.432167
0.040876,+0000021,-0000018,-0000004,+0000065,-0000088,+0004143,-0000796,+0000508,-0002320,15:05:38.432167
0.041209,+0000008,-0000021,-0000016,+0000057,-0000093,+0004141,-0000796,+0000508,-0002320,15:05:38.432167
0.041542,+0000012,-0000012,+0000003,+0000074,-0000082,+0004129,-0000796,+0000510,-0002335,15:05:38.432167
0.041875,-0000002,-0000016,-0000008,+0000060,-0000092,+0004158,-0000796,+0000510,-0002335,15:05:38.432167
0.042208,+0000000,-0000022,-0000016,+0000074,-0000109,+0004136,-0000796,+0000510,-0002335,15:05:38.432167
0.042541,+0000015,-0000045,-0000005,+0000070,-0000093,+0004156,-0000824,+0000500,-0002335,15:05:38.432167
0.042874,+0000013,-0000021,-0000011,+0000064,-0000089,+0004168,-0000824,+0000500,-0002335,15:05:38.432167
0.043207,+0000003,-0000031,-0000003,+0000061,-0000088,+0004156,-0000824,+0000500,-0002335,15:05:38.432167
0.043540,+0000014,-0000005,-0000018,+0000072,-0000089,+0004145,-0000798,+0000502,-0002345,15:05:38.432167
0.043873,+0000018,-0000016,-0000010,+0000073,-0000098,+0004160,-0000798,+0000502,-0002345,15:05:38.432167
0.044206,+0000025,-0000046,-0000015,+0000075,-0000093,+0004140,-0000798,+0000502,-0002345,15:05:38.432167
0.044539,+0000025,-0000045,-0000005,+0000084,-0000088,+0004151,-0000798,+0000494,-0002328,15:05:38.432167
0.044872,+0000001,-0000016,+0000003,+0000076,-0000088,+0004129,-0000798,+0000494,-0002328,15:05:38.432167
0.045205,+0000021,-0000024,-0000016,+0000070,-0000079,+0004151,-0000798,+0000494,-0002328,15:05:38.432167
0.045539,+0000001,-0000009,-0000011,+0000067,-0000085,+0004139,-0000804,+0000508,-0002317,15:05:38.432167
0.045878,+0000008,-0000023,+0000001,+0000063,-0000095,+0004141,-0000804,+0000508,-0002317,15:05:38.432167
0.046378,+0000012,-0000015,+0000001,+0000075,-0000071,+0004152,-0000804,+0000508,-0002317,15:05:38.432167
0.046586,+0000012,-0000015,+0000001,+0000075,-0000082,+0004165,-0000828,+0000496,-0002330,15:05:38.432167
0.046873,-0000005,-0000015,-0000021,+0000051,-0000084,+0004149,-0000828,+0000496,-0002330,15:05:38.432167
0.047203,+0000015,-0000015,-0000011,+0000076,-0000094,+0004143,-0000828,+0000496,-0002330,15:05:38.432167
0.047546,+0000013,-0000038,-0000013,+0000055,-0000092,+0004165,-0000826,+0000520,-0002324,15:05:38.432167
0.047869,+0000010,-0000010,-0000005,+0000066,-0000093,+0004166,-0000826,+0000520,-0002324,15:05:38.432167
0.048202,+0000016,-0000013,-0000013,+0000085,-0000093,+0004131,-0000826,+0000520,-0002324,15:05:38.432167
0.048535,+0000027,-0000043,-0000013,+0000049,-0000072,+0004137,-0000812,+0000522,-0002351,15:05:38.432167
0.048868,+0000005,-0000021,-0000005,+0000063,-0000083,+0004134,-0000812,+0000522,-0002351,15:05:38.432167
0.049201,+0000003,-0000008,-0000008,+0000071,-0000079,+0004160,-0000812,+0000522,-0002351,15:05:38.432167
0.049534,+0000014,-0000018,-0000013,+0000073,-0000086,+0004134,-0000804,+0000516,-0002321,15:05:38.432167
0.049867,+0000021,-0000026,+0000008,+0000064,-0000089,+0004130,-0000804,+0000516,-0002321,15:05:38.432167
0.050200,+0000014,-0000034,-0000016,+0000059,-0000090,+0004170,-0000804,+0000516,-0002321,15:05:38.432167
0.050533,+0000027,-0000013,-0000005,+0000076,-0000089,+0004148,-0000804,+0000506,-0002329,15:05:38.432167
0.050866,+0000019,-0000028,-0000014,+0000057,-0000104,+0004176,-0000804,+0000506,-0002329,15:05:38.432167
0.051199,-0000001,-0000007,-0000008,+0000068,-0000095,+0004151,-0000804,+0000506,-0002329,15:05:38.432167
0.051532,+0000014,-0000019,-0000008,+0000080,-0000082,+0004141,-0000834,+0000516,-0002323,15:05:38.432167
0.051865,+0000014,-0000034,-0000007,+0000052,-0000071,+0004167,-0000834,+0000516,-0002323,15:05:38.432167
0.052198,+0000017,-0000039,-0000019,+0000074,-0000121,+0004154,-0000834,+0000516,-0002323,15:05:38.432167
0.052531,+0000014,-0000035,-0000013,+0000078,-0000078,+0004150,-0000822,+0000496,-0002321,15:05:38.432167
0.052864,+0000005,-0000007,-0000004,+0000087,-0000077,+0004178,-0000822,+0000496,-0002321,15:05:38.432167
0.053197,+0000006,-0000021,-0000016,+0000082,-0000084,+0004151,-0000822,+0000496,-0002321,15:05:38.432167
0.053530,+0000015,-0000016,-0000003,+0000065,-0000080,+0004150,-0000816,+0000500,-0002328,15:05:38.432167
0.053863,+0000000,-0000008,-0000010,+0000080,-0000084,+0004159,-0000816,+0000500,-0002328,15:05:38.432167
0.054196,+0000013,-0000034,-0000005,+0000074,-0000085,+0004150,-0000816,+0000500,-0002328,15:05:38.432167
0.054529,+0000022,-0000034,-0000016,+0000059,-0000082,+0004161,-0000814,+0000522,-0002327,15:05:38.432167
0.054862,-0000003,-0000021,-0000010,+0000062,-0000079,+0004152,-0000814,+0000522,-0002327,15:05:38.432167
0.055195,+0000016,-0000010,-0000013,+0000058,-0000093,+0004162,-0000814,+0000522,-0002327,15:05:38.432167
0.055545,+0000000,-0000031,-0000024,+0000073,-0000084,+0004145,-0000806,+0000516,-0002333,15:05:38.432167
0.055861,-0000003,-0000005,+0000009,+0000057,-0000091,+0004170,-0000806,+0000516,-0002333,15:05:38.432167
0.056194,+0000019,-0000026,-0000021,+0000052,-0000095,+0004175,-0000806,+0000516,-0002333,15:05:38.432167
0.056527,+0000019,-0000027,-0000005,+0000079,-0000094,+0004163,-0000818,+0000520,-0002353,15:05:38.432167
0.056860,+0000008,-0000026,-0000010,+0000069,-0000062,+0004157,-0000818,+0000520,-0002353,15:05:38.432167
0.057193,-0000003,-0000024,-0000011,+0000058,-0000092,+0004162,-0000818,+0000520,-0002353,15:05:38.432167
0.057526,+0000000,-0000019,-0000003,+0000086,-0000075,+0004151,-0000818,+0000522,-0002321,15:05:38.432167
0.057859,+0000013,-0000029,-0000006,+0000056,-0000079,+0004166,-0000818,+0000522,-0002321,15:05:38.432167
0.058192,+0000019,-0000032,+0000000,+0000069,-0000084,+0004159,-0000818,+0000522,-0002321,15:05:38.432167
0.058525,+0000014,-0000029,-0000013,+0000069,-0000086,+0004155,-0000814,+0000512,-0002357,15:05:38.432167
0.058858,+0000013,-0000024,-0000019,+0000069,-0000075,+0004136,-0000814,+0000512,-0002357,15:05:38.432167
0.059191,+0000000,-0000010,-0000008,+0000070,-0000071,+0004155,-0000814,+0000512,-0002357,15:05:38.432167
0.059524,+0000009,-0000026,+0000000,+0000047,-0000079,+0004159,-0000832,+0000528,-0002354,15:05:38.432167
0.059857,+0000020,-0000031,-0000012,+0000070,-0000083,+0004137,-0000832,+0000528,-0002354,15:05:38.432167
0.060190,+0000027,-0000042,+0000003,+0000059,-0000096,+0004142,-0000832,+0000528,-0002354,15:05:38.432167
0.060523,+0000028,-0000027,-0000024,+0000087,-0000101,+0004170,-0000818,+0000504,-0002345,15:05:38.432167
0.060856,+0000002,-0000013,+0000000,+0000061,-0000100,+0004150,-0000818,+0000504,-0002345,15:05:38.432167
0.061189,+0000015,-0000003,-0000010,+0000053,-0000098,+0004151,-0000818,+0000504,-0002345,15:05:38.432167
0.061632,+0000010,-0000026,-0000008,+0000073,-0000072,+0004150,-0000808,+0000516,-0002332,15:05:38.432167
0.061926,+0000022,-0000038,-0000010,+0000065,-0000085,+0004146,-0000808,+0000516,-0002332,15:05:38.432167
0.062191,-0000003,+0000007,+0000005,+0000065,-0000093,+0004151,-0000808,+0000516,-0002332,15:05:38.432167
0.062523,+0000014,-0000019,-0000002,+0000058,-0000089,+0004153,-0000810,+0000510,-0002353,15:05:38.432167
0.062856,+0000009,-0000029,-0000023,+0000064,-0000082,+0004164,-0000810,+0000510,-0002353,15:05:38.432167
0.063187,+0000014,+0000003,-0000002,+0000050,-0000098,+0004148,-0000810,+0000510,-0002353,15:05:38.432167
0.063522,+0000010,-0000027,-0000013,+0000058,-0000088,+0004152,-0000818,+0000516,-0002346,15:05:38.432167
0.063854,+0000020,-0000029,-0000013,+0000056,-0000105,+0004150,-0000818,+0000516,-0002346,15:05:38.432167
0.064186,+0000024,-0000013,-0000010,+0000089,-0000101,+0004156,-0000818,+0000516,-0002346,15:05:38.432167
0.064519,+0000010,-0000020,-0000006,+0000086,-0000085,+0004167,-0000806,+0000522,-0002347,15:05:38.432167
0.064934,+0000006,-0000010,-0000017,+0000059,-0000078,+0004161,-0000806,+0000522,-0002347,15:05:38.432167
0.065186,-0000002,-0000014,+0000009,+0000067,-0000097,+0004147,-0000806,+0000522,-0002347,15:05:38.432167
0.065520,+0000014,-0000018,-0000016,+0000063,-0000102,+0004165,-0000816,+0000522,-0002341,15:05:38.432167
0.065861,+0000021,-0000035,-0000008,+0000075,-0000088,+0004155,-0000816,+0000522,-0002341,15:05:38.432167
0.066184,+0000001,-0000022,-0000005,+0000084,-0000070,+0004139,-0000816,+0000522,-0002341,15:05:38.432167
0.066551,-0000001,-0000011,-0000008,+0000082,-0000087,+0004159,-0000792,+0000508,-0002344,15:05:38.432167
0.066850,+0000022,-0000008,-0000010,+0000074,-0000065,+0004153,-0000792,+0000508,-0002344,15:05:38.432167
0.067183,+0000016,-0000007,-0000016,+0000068,-0000075,+0004160,-0000792,+0000508,-0002344,15:05:38.432167
0.067516,+0000000,-0000025,-0000008,+0000071,-0000094,+0004159,-0000812,+0000536,-0002327,15:05:38.432167
0.067851,+0000018,-0000024,-0000002,+0000080,-0000091,+0004144,-0000812,+0000536,-0002327,15:05:38.432167
0.068436,+0000012,-0000023,-0000007,+0000052,-0000114,+0004137,-0000812,+0000536,-0002327,15:05:38.432167
0.068643,+0000012,-0000013,-0000007,+0000064,-0000084,+0004130,-0000806,+0000514,-0002327,15:05:38.432167
0.068863,+0000005,-0000013,-0000007,+0000064,-0000084,+0004151,-0000806,+0000514,-0002327,15:05:38.432167
0.069181,-0000006,-0000016,-0000005,+0000076,-0000073,+0004150,-0000806,+0000514,-0002327,15:05:38.432167
0.069514,+0000012,-0000034,-0000006,+0000048,-0000088,+0004175,-0000810,+0000516,-0002324,15:05:38.432167
0.069847,+0000031,-0000034,-0000010,+0000062,-0000093,+0004168,-0000810,+0000516,-0002324,15:05:38.432167
0.070180,+0000019,-0000034,-0000007,+0000078,-0000085,+0004147,-0000810,+0000516,-0002324,15:05:38.432167
0.070513,+0000011,-0000026,-0000007,+0000068,-0000086,+0004168,-0000812,+0000504,-0002335,15:05:38.432167
0.070846,+0000003,-0000009,-0000007,+0000056,-0000093,+0004122,-0000812,+0000504,-0002335,15:05:38.432167
0.071179,+0000022,-0000026,-0000004,+0000066,-0000106,+0004143,-0000812,+0000504,-0002335,15:05:38.432167
0.071512,+0000012,-0000029,-0000008,+0000071,-0000084,+0004156,-0000826,+0000516,-0002336,15:05:38.432167
0.071845,+0000022,-0000031,-0000013,+0000081,-0000090,+0004138,-0000826,+0000516,-0002336,15:05:38.432167
0.072178,+0000016,-0000032,-0000018,+0000072,-0000095,+0004147,-0000826,+0000516,-0002336,15:05:38.432167
0.072511,+0000003,-0000013,-0000003,+0000068,-0000080,+0004157,-0000806,+0000512,-0002338,15:05:38.432167
0.072844,-0000001,+0000004,+0000009,+0000073,-0000092,+0004150,-0000806,+0000512,-0002338,15:05:38.432167
0.073177,+0000019,-0000023,-0000013,+0000080,-0000077,+0004156,-0000806,+0000512,-0002338,15:05:38.432167
0.073510,+0000009,-0000027,-0000013,+0000079,-0000086,+0004141,-0000814,+0000504,-0002358,15:05:38.432167
0.073843,+0000024,-0000050,-0000006,+0000070,-0000086,+0004136,-0000814,+0000504,-0002358,15:05:38.432167
0.074176,+0000030,-0000031,-0000019,+0000062,-0000092,+0004134,-0000814,+0000504,-0002358,15:05:38.432167
0.074509,+0000006,+0000000,-0000008,+0000072,-0000073,+0004138,-0000814,+0000518,-0002340,15:05:38.432167
0.074842,-0000006,-0000011,+0000006,+0000089,-0000094,+0004155,-0000814,+0000518,-0002340,15:05:38.432167
0.075175,+0000026,-0000019,-0000016,+0000075,-0000071,+0004158,-0000814,+0000518,-0002340,15:05:38.432167
0.075508,+0000000,-0000030,-0000002,+0000064,-0000085,+0004174,-0000832,+0000522,-0002344,15:05:38.432167
0.075841,+0000022,-0000037,-0000013,+0000053,-0000109,+0004164,-0000832,+0000522,-0002344,15:05:38.432167
0.076174,+0000007,-0000011,-0000004,+0000069,-0000083,+0004154,-0000832,+0000522,-0002344,15:05:38.432167
0.076507,+0000000,-0000002,+0000003,+0000059,-0000091,+0004145,-0000804,+0000516,-0002331,15:05:38.433374
0.076840,+0000028,-0000034,-0000018,+0000061,-0000066,+0004154,-0000804,+0000516,-0002331,15:05:38.433374
0.077173,+0000009,-0000021,+0000005,+0000069,-0000084,+0004162,-0000804,+0000516,-0002331,15:05:38.433374
0.077506,+0000022,-0000039,-0000022,+0000067,-0000091,+0004169,-0000822,+0000496,-0002333,15:05:38.433374
0.077839,+0000020,-0000031,-0000016,+0000073,-0000082,+0004155,-0000822,+0000496,-0002333,15:05:38.433374
0.078172,+0000016,-0000016,-0000013,+0000072,-0000074,+0004161,-0000822,+0000496,-0002333,15:05:38.433374
0.078505,+0000002,-0000007,+0000004,+0000069,-0000085,+0004150,-0000828,+0000504,-0002317,15:05:38.433374
0.078838,+0000016,-0000015,-0000023,+0000069,-0000074,+0004155,-0000828,+0000504,-0002317,15:05:38.433374
0.079171,-0000003,-0000020,+0000003,+0000069,-0000091,+0004163,-0000828,+0000504,-0002317,15:05:38.433374
0.079504,+0000033,-0000040,+0000004,+0000052,-0000085,+0004138,-0000810,+0000498,-0002327,15:05:38.433374
0.079837,+0000021,-0000029,-0000016,+0000062,-0000082,+0004148,-0000810,+0000498,-0002327,15:05:38.433374
0.080170,+0000008,-0000023,-0000011,+0000048,-0000101,+0004158,-0000810,+0000498,-0002327,15:05:38.433374
0.080503,+0000010,-0000012,-0000003,+0000048,-0000084,+0004151,-0000818,+0000500,-0002328,15:05:38.433374
0.080836,+0000009,-0000018,-0000006,+0000068,-0000077,+0004156,-0000818,+0000500,-0002328,15:05:38.433374
0.081169,+0000006,-0000010,+0000001,+0000070,-0000075,+0004152,-0000818,+0000500,-0002328,15:05:38.433374
0.081502,+0000027,-0000032,-0000013,+0000070,-0000096,+0004143,-0000808,+0000510,-0002308,15:05:38.433374
0.081835,+0000017,-0000021,-0000007,+0000060,-0000099,+0004135,-0000808,+0000510,-0002308,15:05:38.433374
0.082168,+0000014,-0000021,+0000000,+0000065,-0000091,+0004152,-0000808,+0000510,-0002308,15:05:38.433374
0.082501,+0000011,-0000018,-0000018,+0000073,-0000091,+0004154,-0000808,+0000508,-0002316,15:05:38.433374
0.082834,+0000005,-0000012,-0000003,+0000055,-0000101,+0004154,-0000808,+0000508,-0002316,15:05:38.433374
0.083167,+0000012,-0000029,-0000013,+0000060,-0000069,+0004155,-0000808,+0000508,-0002316,15:05:38.433374
0.083500,+0000016,-0000019,+0000000,+0000071,-0000085,+0004160,-0000808,+0000510,-0002294,15:05:38.433374
0.083833,+0000017,-0000034,-0000019,+0000066,-0000093,+0004146,-0000808,+0000510,-0002294,15:05:38.433374
0.084166,+0000011,-0000020,-0000011,+0000071,-0000103,+0004135,-0000808,+0000510,-0002294,15:05:38.433374
0.084499,+0000000,+0000000,-0000002,+0000077,-0000080,+0004149,-0000808,+0000514,-0002326,15:05:38.433374
0.084832,+0000010,-0000002,+0000005,+0000051,-0000064,+0004139,-0000808,+0000514,-0002326,15:05:38.433374
0.085165,+0000011,-0000043,-0000003,+0000071,-0000099,+0004125,-0000808,+0000514,-0002326,15:05:38.433374
0.085498,+0000023,-0000023,-0000013,+0000076,-0000094,+0004142,-0000794,+0000512,-0002301,15:05:38.433374
0.085831,+0000017,-0000030,-0000011,+0000073,-0000089,+0004153,-0000794,+0000512,-0002301,15:05:38.433374
0.086164,+0000000,-0000015,-0000013,+0000060,-0000073,+0004143,-0000794,+0000512,-0002301,15:05:38.433374
0.086497,+0000002,+0000000,-0000005,+0000074,-0000090,+0004159,-0000790,+0000510,-0002327,15:05:38.433374
0.086830,+0000005,-0000011,-0000006,+0000077,-0000100,+0004170,-0000790,+0000510,-0002327,15:05:38.433374
0.087163,+0000025,-0000042,-0000005,+0000067,-0000076,+0004165,-0000790,+0000510,-0002327,15:05:38.433374
0.087496,+0000019,-0000037,-0000012,+0000062,-0000101,+0004158,-0000802,+0000524,-0002335,15:05:38.433374
0.087829,+0000030,-0000026,-0000010,+0000077,-0000078,+0004172,-0000802,+0000524,-0002335,15:05:38.433374
0.088162,+0000003,+0000011,+0000000,+0000052,-0000067,+0004163,-0000802,+0000524,-0002335,15:05:38.433374
0.088495,+0000003,-0000014,-0000007,+0000059,-0000094,+0004140,-0000800,+0000520,-0002325,15:05:38.433374
0.088828,+0000022,-0000024,-0000010,+0000076,-0000111,+0004153,-0000800,+0000520,-0002325,15:05:38.434379
0.089161,+0000016,-0000029,-0000002,+0000066,-0000122,+0004157,-0000800,+0000520,-0002325,15:05:38.434379
0.089494,+0000027,-0000043,-0000016,+0000050,-0000093,+0004145,-0000804,+0000516,-0002328,15:05:38.434379
0.089827,+0000023,-0000024,-0000018,+0000067,-0000093,+0004146,-0000804,+0000516,-0002328,15:05:38.434379
0.090160,+0000006,-0000007,+0000000,+0000061,-0000088,+0004153,-0000804,+0000516,-0002328,15:05:38.434379
0.090493,+0000005,-0000010,+0000000,+0000049,-0000082,+0004150,-0000812,+0000520,-0002307,15:05:38.434379
0.090826,+0000008,-0000035,-0000008,+0000083,-0000066,+0004156,-0000812,+0000520,-0002307,15:05:38.434379
0.091159,+0000029,-0000031,-0000002,+0000066,-0000082,+0004171,-0000812,+0000520,-0002307,15:05:38.434379
0.091492,+0000013,-0000031,-0000005,+0000060,-0000083,+0004145,-0000800,+0000506,-0002329,15:05:38.434379
0.091826,+0000019,-0000012,-0000016,+0000063,-0000078,+0004158,-0000800,+0000506,-0002329,15:05:38.434379
0.092158,+0000000,-0000018,-0000002,+0000064,-0000093,+0004170,-0000800,+0000506,-0002329,15:05:38.434379
0.092491,+0000025,-0000016,+0000001,+0000062,-0000090,+0004142,-0000798,+0000514,-0002338,15:05:38.434379
0.092824,+0000005,-0000038,-0000011,+0000056,-0000093,+0004156,-0000798,+0000514,-0002338,15:05:38.434379
0.093157,+0000021,-0000029,-0000012,+0000053,-0000093,+0004164,-0000798,+0000514,-0002338,15:05:38.434379
0.093490,+0000028,-0000034,-0000016,+0000059,-0000098,+0004164,-0000818,+0000520,-0002318,15:05:38.434379
0.093823,+0000011,-0000015,-0000012,+0000060,-0000106,+0004148,-0000818,+0000520,-0002318,15:05:38.434379
0.094156,+0000005,-0000019,-0000012,+0000066,-0000096,+0004148,-0000818,+0000520,-0002318,15:05:38.434379
0.094489,+0000024,-0000021,-0000002,+0000057,-0000102,+0004139,-0000804,+0000514,-0002318,15:05:38.434379
0.094822,+0000003,-0000011,-0000016,+0000067,-0000108,+0004156,-0000804,+0000514,-0002318,15:05:38.434379
0.095156,+0000017,-0000023,-0000003,+0000058,-0000084,+0004153,-0000804,+0000514,-0002318,15:05:38.434379
0.095488,+0000017,-0000031,-0000018,+0000067,-0000095,+0004155,-0000806,+0000512,-0002311,15:05:38.434379
0.095824,+0000007,-0000015,-0000002,+0000068,-0000094,+0004158,-0000806,+0000512,-0002311,15:05:38.434379
0.096409,+0000022,-0000039,-0000002,+0000063,-0000085,+0004162,-0000806,+0000512,-0002311,15:05:38.434379
0.096634,+0000006,-0000010,-0000004,+0000065,-0000085,+0004162,-0000820,+0000512,-0002321,15:05:38.434379
0.096860,+0000009,-0000024,-0000013,+0000069,-0000079,+0004143,-0000820,+0000512,-0002321,15:05:38.434379
0.097314,+0000003,-0000048,-0000011,+0000064,-0000097,+0004162,-0000820,+0000512,-0002321,15:05:38.434379
0.097497,+0000027,-0000048,-0000011,+0000064,-0000097,+0004162,-0000812,+0000508,-0002305,15:05:38.434379
0.097819,-0000009,-0000007,+0000003,+0000043,-0000085,+0004131,-0000812,+0000508,-0002305,15:05:38.434379
0.098176,+0000009,-0000013,+0000004,+0000055,-0000086,+0004152,-0000812,+0000508,-0002305,15:05:38.434379
0.098485,+0000006,-0000011,-0000008,+0000058,-0000083,+0004147,-0000798,+0000496,-0002337,15:05:38.434379
0.098818,+0000000,-0000023,-0000018,+0000056,-0000085,+0004152,-0000798,+0000496,-0002337,15:05:38.434379
0.099156,+0000027,-0000032,+0000001,+0000073,-0000084,+0004141,-0000798,+0000496,-0002337,15:05:38.434379
0.099484,+0000014,-0000035,-0000003,+0000062,-0000084,+0004144,-0000800,+0000512,-0002349,15:05:38.434379
0.099905,-0000004,+0000006,-0000002,+0000059,-0000100,+0004143,-0000800,+0000512,-0002349,15:05:38.434379
0.100155,+0000024,-0000015,-0000007,+0000071,-0000111,+0004156,-0000800,+0000512,-0002349,15:05:38.434379
0.100487,+0000011,-0000031,+0000001,+0000065,-0000096,+0004147,-0000812,+0000510,-0002339,15:05:38.434379
0.100816,+0000018,-0000040,-0000013,+0000072,-0000088,+0004142,-0000812,+0000510,-0002339,15:05:38.434379
0.101150,+0000025,-0000035,-0000013,+0000049,-0000120,+0004145,-0000812,+0000510,-0002339,15:05:38.434379
0.101483,+0000013,-0000021,-0000013,+0000069,-0000105,+0004158,-0000800,+0000512,-0002310,15:05:38.434379
0.101815,+0000008,-0000018,-0000016,+0000076,-0000100,+0004159,-0000800,+0000512,-0002310,15:05:38.434379
0.102149,+0000013,-0000019,-0000013,+0000084,-0000091,+0004168,-0000800,+0000512,-0002310,15:05:38.434379
0.102482,+0000013,-0000019,+0000003,+0000047,-0000091,+0004151,-0000798,+0000508,-0002322,15:05:38.434379
0.102816,+0000021,-0000040,-0000016,+0000065,-0000079,+0004136,-0000798,+0000508,-0002322,15:05:38.434379
0.103147,+0000029,-0000036,-0000010,+0000051,-0000103,+0004154,-0000798,+0000508,-0002322,15:05:38.434379
0.103480,+0000013,-0000023,+0000006,+0000071,-0000077,+0004155,-0000822,+0000514,-0002340,15:05:38.434379
0.103814,+0000014,-0000019,-0000024,+0000072,-0000087,+0004164,-0000822,+0000514,-0002340,15:05:38.434379
0.104147,-0000008,-0000004,+0000001,+0000055,-0000082,+0004151,-0000822,+0000514,-0002340,15:05:38.434379
0.104479,+0000021,-0000029,-0000014,+0000061,-0000092,+0004143,-0000808,+0000518,-0002319,15:05:38.434379
0.104812,+0000026,-0000028,-0000008,+0000065,-0000086,+0004139,-0000808,+0000518,-0002319,15:05:38.434379
0.105145,+0000029,-0000037,-0000013,+0000052,-0000072,+0004143,-0000808,+0000518,-0002319,15:05:38.434379
0.105478,+0000003,-0000002,+0000005,+0000077,-0000080,+0004160,-0000796,+0000508,-0002319,15:05:38.434379
0.105811,+0000021,-0000016,-0000019,+0000065,-0000092,+0004149,-0000796,+0000508,-0002319,15:05:38.434379
0.106144,+0000003,-0000021,-0000005,+0000055,-0000088,+0004143,-0000796,+0000508,-0002319,15:05:38.434379
0.106477,+0000010,-0000029,+0000001,+0000043,-0000095,+0004147,-0000812,+0000512,-0002318,15:05:38.434379
0.106810,+0000020,-0000026,-0000015,+0000059,-0000096,+0004153,-0000812,+0000512,-0002318,15:05:38.434379
0.107143,+0000017,-0000031,-0000010,+0000053,-0000083,+0004155,-0000812,+0000512,-0002318,15:05:38.434379
0.107476,+0000002,-0000016,-0000010,+0000051,-0000092,+0004158,-0000800,+0000512,-0002326,15:05:38.434379
0.107809,+0000011,-0000018,-0000008,+0000062,-0000075,+0004142,-0000800,+0000512,-0002326,15:05:38.434379
0.108142,+0000014,-0000013,-0000008,+0000068,-0000115,+0004141,-0000800,+0000512,-0002326,15:05:38.434379
0.108475,+0000006,-0000024,-0000013,+0000062,-0000106,+0004158,-0000810,+0000494,-0002321,15:05:38.434379
0.108808,+0000009,-0000021,-0000003,+0000064,-0000077,+0004170,-0000810,+0000494,-0002321,15:05:38.434379
0.109141,+0000025,-0000039,-0000018,+0000044,-0000104,+0004160,-0000810,+0000494,-0002321,15:05:38.434379
0.109474,+0000010,-0000021,-0000010,+0000072,-0000083,+0004150,-0000822,+0000506,-0002334,15:05:38.434379
0.109807,+0000014,-0000013,-0000003,+0000053,-0000086,+0004142,-0000822,+0000506,-0002334,15:05:38.434379
0.110140,+0000009,-0000019,-0000016,+0000060,-0000093,+0004138,-0000822,+0000506,-0002334,15:05:38.434379
0.110473,+0000019,-0000028,+0000000,+0000041,-0000086,+0004146,-0000822,+0000486,-0002314,15:05:38.434379
0.110806,+0000016,-0000024,-0000016,+0000066,-0000089,+0004149,-0000822,+0000486,-0002314,15:05:38.434379
0.111139,+0000019,-0000034,-0000007,+0000048,-0000080,+0004168,-0000822,+0000486,-0002314,15:05:38.434379
0.111472,+0000008,-0000021,-0000018,+0000058,-0000074,+0004146,-0000810,+0000496,-0002333,15:05:38.434379
0.111805,+0000014,-0000018,-0000008,+0000041,-0000099,+0004169,-0000810,+0000496,-0002333,15:05:38.434379
0.112138,+0000002,-0000009,-0000008,+0000067,-0000104,+0004150,-0000810,+0000496,-0002333,15:05:38.434379
0.112471,+0000016,-0000040,+0000000,+0000061,-0000085,+0004156,-0000812,+0000500,-0002348,15:05:38.434379
0.112804,+0000036,-0000045,-0000021,+0000048,-0000105,+0004143,-0000812,+0000500,-0002348,15:05:38.434379
0.113137,+0000005,-0000034,-0000012,+0000077,-0000094,+0004139,-0000812,+0000500,-0002348,15:05:38.434379
0.113470,+0000014,-0000009,-0000005,+0000073,-0000098,+0004154,-0000810,+0000504,-0002312,15:05:38.434379
0.113803,+0000000,+0000001,+0000008,+0000052,-0000087,+0004152,-0000810,+0000504,-0002312,15:05:38.434379
0.114136,+0000014,-0000016,-0000019,+0000085,-0000088,+0004156,-0000810,+0000504,-0002312,15:05:38.434379
0.114469,+0000024,-0000039,-0000010,+0000068,-0000104,+0004153,-0000806,+0000518,-0002344,15:05:38.434379
0.114802,+0000014,-0000028,-0000007,+0000063,-0000089,+0004155,-0000806,+0000518,-0002344,15:05:38.434379
0.115135,+0000022,-0000025,-0000013,+0000067,-0000058,+0004161,-0000806,+0000518,-0002344,15:05:38.434379
0.115468,+0000014,-0000008,+0000000,+0000066,-0000078,+0004149,-0000830,+0000520,-0002344,15:05:38.434379
0.115801,+0000002,-0000006,-0000010,+0000048,-0000089,+0004147,-0000830,+0000520,-0002344,15:05:38.434379
0.116134,+0000003,-0000016,+0000000,+0000065,-0000090,+0004155,-0000830,+0000520,-0002344,15:05:38.434379
0.116467,+0000024,-0000042,-0000002,+0000061,-0000107,+0004148,-0000830,+0000514,-0002318,15:05:38.434379
0.116800,+0000024,-0000042,-0000011,+0000048,-0000067,+0004163,-0000830,+0000514,-0002318,15:05:38.434379
0.117133,+0000022,-0000013,-0000013,+0000069,-0000097,+0004153,-0000830,+0000514,-0002318,15:05:38.434379
0.117466,-0000001,+0000000,-0000008,+0000063,-0000099,+0004153,-0000814,+0000518,-0002327,15:05:38.434379
0.117800,+0000010,-0000026,-0000005,+0000076,-0000103,+0004156,-0000814,+0000518,-0002327,15:05:38.434379
0.118133,+0000016,-0000027,-0000008,+0000080,-0000102,+0004140,-0000814,+0000518,-0002327,15:05:38.434379
0.118465,+0000027,-0000023,-0000007,+0000056,-0000103,+0004157,-0000814,+0000504,-0002346,15:05:38.434379
0.118798,+0000027,-0000002,+0000013,+0000058,-0000081,+0004150,-0000814,+0000504,-0002346,15:05:38.434379
0.119133,+0000017,-0000019,-0000024,+0000052,-0000058,+0004160,-0000814,+0000504,-0002346,15:05:38.434379
0.119464,+0000009,-0000015,+0000001,+0000039,-0000100,+0004142,-0000816,+0000504,-0002348,15:05:38.434379
0.119797,+0000002,-0000018,-0000005,+0000068,-0000091,+0004155,-0000816,+0000504,-0002348,15:05:38.434379
0.120130,+0000022,-0000013,-0000008,+0000060,-0000078,+0004154,-0000816,+0000504,-0002348,15:05:38.434379
0.120463,+0000021,-0000043,-0000013,+0000059,-0000096,+0004152,-0000796,+0000520,-0002356,15:05:38.434379
0.120796,+0000022,-0000026,-0000016,+0000048,-0000104,+0004146,-0000796,+0000520,-0002356,15:05:38.434379
0.121130,+0000003,-0000021,-0000008,+0000041,-0000075,+0004150,-0000796,+0000520,-0002356,15:05:38.434379
0.121462,+0000017,-0000021,-0000016,+0000037,-0000088,+0004165,-0000796,+0000500,-0002342,15:05:38.434379
0.121795,-0000003,-0000008,-0000002,+0000052,-0000097,+0004143,-0000796,+0000500,-0002342,15:05:38.435799
0.122130,+0000009,-0000024,-0000011,+0000054,-0000090,+0004155,-0000796,+0000500,-0002342,15:05:38.435799
0.122461,+0000024,-0000034,-0000007,+0000069,-0000070,+0004160,-0000836,+0000494,-0002353,15:05:38.435799
0.122794,+0000008,-0000029,-0000003,+0000061,-0000098,+0004162,-0000836,+0000494,-0002353,15:05:38.435799
0.123130,+0000028,-0000029,-0000021,+0000056,-0000105,+0004152,-0000836,+0000494,-0002353,15:05:38.435799
0.123460,+0000000,-0000008,-0000002,+0000055,-0000095,+0004152,-0000816,+0000514,-0002335,15:05:38.435799
0.123793,+0000022,-0000023,-0000021,+0000067,-0000080,+0004148,-0000816,+0000514,-0002335,15:05:38.435799
0.124126,+0000016,-0000013,-0000019,+0000056,-0000088,+0004161,-0000816,+0000514,-0002335,15:05:38.435799
0.124459,+0000012,-0000034,-0000010,+0000053,-0000110,+0004160,-0000826,+0000496,-0002343,15:05:38.435799
0.124792,+0000020,-0000045,-0000017,+0000055,-0000085,+0004155,-0000826,+0000496,-0002343,15:05:38.435799
0.125126,+0000011,-0000013,-0000008,+0000049,-0000104,+0004146,-0000826,+0000496,-0002343,15:05:38.435799
0.125458,+0000017,-0000022,-0000013,+0000052,-0000083,+0004141,-0000806,+0000514,-0002319,15:05:38.435799
0.125791,-0000006,-0000019,+0000009,+0000053,-0000084,+0004137,-0000806,+0000514,-0002319,15:05:38.435799
0.126126,+0000019,-0000021,-0000007,+0000075,-0000079,+0004135,-0000806,+0000514,-0002319,15:05:38.435799
0.126457,+0000022,-0000048,-0000011,+0000054,-0000082,+0004159,-0000808,+0000502,-0002336,15:05:38.435799
0.126790,+0000019,-0000021,-0000021,+0000053,-0000077,+0004157,-0000808,+0000502,-0002336,15:05:38.435799
0.127126,+0000010,-0000023,-0000010,+0000051,-0000085,+0004164,-0000808,+0000502,-0002336,15:05:38.435799
0.127456,+0000003,-0000008,-0000018,+0000055,-0000080,+0004174,-0000802,+0000490,-0002350,15:05:38.435799
0.127789,+0000006,-0000021,+0000003,+0000060,-0000072,+0004175,-0000802,+0000490,-0002350,15:05:38.435799
0.128126,+0000037,-0000047,-0000011,+0000048,-0000068,+0004185,-0000802,+0000490,-0002350,15:05:38.435799
0.128455,+0000020,-0000026,-0000002,+0000068,-0000089,+0004140,-0000816,+0000496,-0002343,15:05:38.435799
0.128788,+0000008,-0000024,-0000008,+0000068,-0000104,+0004148,-0000816,+0000496,-0002343,15:05:38.435799
0.129126,-0000006,+0000006,-0000002,+0000067,-0000094,+0004155,-0000816,+0000496,-0002343,15:05:38.435799
0.129454,+0000000,-0000005,-0000004,+0000074,-0000085,+0004157,-0000822,+0000526,-0002325,15:05:38.435799
0.129787,+0000036,-0000035,-0000008,+0000059,-0000078,+0004159,-0000822,+0000526,-0002325,15:05:38.435799
0.130125,+0000011,-0000031,-0000005,+0000040,-0000072,+0004176,-0000822,+0000526,-0002325,15:05:38.435799
0.130453,+0000029,-0000036,-0000013,+0000047,-0000096,+0004148,-0000826,+0000524,-0002352,15:05:38.435799
0.130786,+0000011,-0000019,-0000011,+0000064,-0000076,+0004151,-0000826,+0000524,-0002352,15:05:38.435799
0.131124,+0000017,-0000018,-0000008,+0000034,-0000087,+0004145,-0000826,+0000524,-0002352,15:05:38.435799
0.131452,+0000008,-0000016,+0000001,+0000051,-0000078,+0004153,-0000814,+0000516,-0002331,15:05:38.435799
0.131785,+0000003,-0000024,-0000004,+0000065,-0000081,+0004153,-0000814,+0000516,-0002331,15:05:38.435799
0.132124,+0000027,-0000042,-0000002,+0000054,-0000084,+0004155,-0000814,+0000516,-0002331,15:05:38.435799
0.132451,+0000020,-0000018,-0000011,+0000064,-0000085,+0004164,-0000822,+0000498,-0002332,15:05:38.435799
0.132784,-0000002,-0000008,+0000006,+0000065,-0000091,+0004141,-0000822,+0000498,-0002332,15:05:38.435799
0.133123,+0000008,-0000029,-0000008,+0000065,-0000085,+0004151,-0000822,+0000498,-0002332,15:05:38.435799
0.133450,+0000012,-0000004,-0000007,+0000055,-0000068,+0004148,-0000822,+0000514,-0002342,15:05:38.436805
0.133783,+0000013,-0000030,-0000016,+0000061,-0000080,+0004147,-0000822,+0000514,-0002342,15:05:38.436805
0.134122,+0000024,-0000026,-0000008,+0000053,-0000097,+0004159,-0000822,+0000514,-0002342,15:05:38.436805
0.134449,+0000014,-0000011,-0000011,+0000061,-0000081,+0004179,-0000820,+0000506,-0002334,15:05:38.436805
0.134782,+0000022,-0000026,-0000018,+0000065,-0000097,+0004146,-0000820,+0000506,-0002334,15:05:38.436805
0.135121,+0000019,-0000012,-0000005,+0000047,-0000104,+0004157,-0000820,+0000506,-0002334,15:05:38.436805
0.135448,+0000010,-0000018,-0000010,+0000040,-0000083,+0004157,-0000802,+0000486,-0002313,15:05:38.436805
0.135781,+0000018,-0000027,-0000006,+0000063,-0000071,+0004151,-0000802,+0000486,-0002313,15:05:38.436805
0.136120,+0000020,-0000036,-0000011,+0000068,-0000075,+0004157,-0000802,+0000486,-0002313,15:05:38.436805
0.136447,+0000010,-0000019,-0000002,+0000065,-0000091,+0004141,-0000824,+0000496,-0002333,15:05:38.436805
0.136780,+0000002,-0000016,-0000010,+0000065,-0000080,+0004130,-0000824,+0000496,-0002333,15:05:38.436805
0.137119,+0000013,-0000020,-0000002,+0000053,-0000081,+0004156,-0000824,+0000496,-0002333,15:05:38.436805
0.137446,+0000008,-0000018,-0000016,+0000059,-0000072,+0004147,-0000834,+0000504,-0002339,15:05:38.436805
0.137779,+0000027,-0000031,-0000003,+0000063,-0000111,+0004146,-0000834,+0000504,-0002339,15:05:38.436805
0.138118,+0000024,-0000040,-0000013,+0000042,-0000090,+0004147,-0000834,+0000504,-0002339,15:05:38.436805
0.138445,+0000028,-0000021,-0000004,+0000072,-0000083,+0004143,-0000822,+0000508,-0002344,15:05:38.436805
0.138778,-0000001,-0000013,-0000016,+0000071,-0000085,+0004126,-0000822,+0000508,-0002344,15:05:38.436805
0.139117,+0000006,-0000022,-0000010,+0000055,-0000084,+0004152,-0000822,+0000508,-0002344,15:05:38.436805
0.139444,+0000012,-0000018,-0000001,+0000065,-0000078,+0004156,-0000820,+0000496,-0002334,15:05:38.436805
0.139777,+0000009,-0000031,-0000013,+0000069,-0000083,+0004168,-0000820,+0000496,-0002334,15:05:38.436805
0.140110,+0000038,-0000035,-0000008,+0000057,-0000089,+0004144,-0000820,+0000496,-0002334,15:05:38.436805
0.140443,+0000032,-0000043,-0000016,+0000059,-0000078,+0004145,-0000826,+0000492,-0002350,15:05:38.436805
0.140776,+0000010,-0000027,-0000011,+0000056,-0000086,+0004135,-0000826,+0000492,-0002350,15:05:38.436805
0.141109,+0000000,-0000010,-0000008,+0000067,-0000087,+0004138,-0000826,+0000492,-0002350,15:05:38.436805
0.141442,-0000003,-0000012,+0000000,+0000062,-0000070,+0004163,-0000824,+0000526,-0002327,15:05:38.436805
0.141775,+0000025,-0000039,-0000019,+0000063,-0000086,+0004156,-0000824,+0000526,-0002327,15:05:38.436805
0.142108,+0000019,-0000031,+0000006,+0000061,-0000090,+0004143,-0000824,+0000526,-0002327,15:05:38.436805
0.142441,+0000025,-0000034,-0000013,+0000072,-0000071,+0004149,-0000828,+0000514,-0002338,15:05:38.438210
0.142774,+0000006,-0000010,+0000000,+0000049,-0000079,+0004152,-0000828,+0000514,-0002338,15:05:38.438210
0.143107,+0000017,-0000008,+0000000,+0000053,-0000063,+0004152,-0000828,+0000514,-0002338,15:05:38.438210
0.143440,+0000006,-0000019,-0000013,+0000070,-0000072,+0004171,-0000812,+0000512,-0002348,15:05:38.438210
0.143773,+0000009,-0000024,+0000006,+0000070,-0000081,+0004127,-0000812,+0000512,-0002348,15:05:38.438210
0.144106,+0000028,-0000043,-0000021,+0000034,-0000066,+0004159,-0000812,+0000512,-0002348,15:05:38.438210
0.144439,+0000009,-0000024,-0000002,+0000059,-0000081,+0004154,-0000802,+0000500,-0002350,15:05:38.438210
0.144772,+0000015,-0000005,-0000016,+0000051,-0000069,+0004158,-0000802,+0000500,-0002350,15:05:38.438210
0.145106,+0000003,-0000021,-0000018,+0000058,-0000092,+0004176,-0000802,+0000500,-0002350,15:05:38.438210
0.145438,+0000016,-0000016,+0000001,+0000060,-0000088,+0004176,-0000818,+0000490,-0002341,15:05:38.438210
0.145778,+0000035,-0000031,-0000022,+0000048,-0000084,+0004149,-0000818,+0000490,-0002341,15:05:38.438210
0.146286,+0000010,-0000015,-0000017,+0000070,-0000095,+0004153,-0000818,+0000490,-0002341,15:05:38.438210
0.146502,+0000006,-0000015,-0000008,+0000050,-0000095,+0004153,-0000812,+0000506,-0002338,15:05:38.438210
0.146773,+0000008,-0000015,-0000010,+0000046,-0000079,+0004142,-0000812,+0000506,-0002338,15:05:38.438210
0.147175,+0000022,-0000024,-0000011,+0000056,-0000068,+0004151,-0000812,+0000506,-0002338,15:05:38.438210
0.147439,+0000023,-0000024,-0000011,+0000056,-0000068,+0004147,-0000814,+0000502,-0002362,15:05:38.438210
0.147771,+0000002,-0000024,-0000016,+0000064,-0000086,+0004140,-0000814,+0000502,-0002362,15:05:38.438210
0.148104,+0000010,-0000017,+0000001,+0000069,-0000077,+0004156,-0000814,+0000502,-0002362,15:05:38.438210
0.148435,+0000013,-0000032,-0000021,+0000061,-0000083,+0004163,-0000816,+0000492,-0002345,15:05:38.438210
0.148769,+0000011,-0000008,+0000006,+0000060,-0000108,+0004146,-0000816,+0000492,-0002345,15:05:38.438210
0.149101,+0000014,-0000023,-0000024,+0000054,-0000077,+0004164,-0000816,+0000492,-0002345,15:05:38.438210
0.149434,+0000003,-0000020,+0000004,+0000077,-0000085,+0004158,-0000822,+0000518,-0002332,15:05:38.438210
0.149767,+0000016,-0000029,-0000019,+0000053,-0000086,+0004139,-0000822,+0000518,-0002332,15:05:38.438210
0.150100,+0000005,-0000035,-0000004,+0000076,-0000106,+0004144,-0000822,+0000518,-0002332,15:05:38.438210
0.150433,+0000024,-0000031,-0000013,+0000056,-0000077,+0004147,-0000802,+0000520,-0002322,15:05:38.438210
0.150766,+0000005,-0000003,-0000008,+0000064,-0000092,+0004145,-0000802,+0000520,-0002322,15:05:38.438210
0.151099,+0000019,-0000022,-0000007,+0000060,-0000083,+0004151,-0000802,+0000520,-0002322,15:05:38.438210
0.151432,+0000010,-0000012,-0000004,+0000067,-0000073,+0004149,-0000820,+0000518,-0002329,15:05:38.438210
0.151765,+0000013,-0000037,-0000005,+0000060,-0000091,+0004149,-0000820,+0000518,-0002329,15:05:38.438210
0.152098,+0000030,-0000034,-0000008,+0000044,-0000099,+0004144,-0000820,+0000518,-0002329,15:05:38.438210
0.152431,+0000011,-0000023,-0000021,+0000055,-0000099,+0004178,-0000810,+0000524,-0002333,15:05:38.438210
0.152764,+0000000,-0000010,+0000006,+0000058,-0000061,+0004154,-0000810,+0000524,-0002333,15:05:38.438210
0.153097,+0000000,-0000013,+0000001,+0000050,-0000076,+0004147,-0000810,+0000524,-0002333,15:05:38.438210
0.153457,+0000016,-0000029,-0000007,+0000076,-0000088,+0004154,-0000800,+0000508,-0002325,15:05:38.438210
0.153763,+0000030,-0000027,-0000022,+0000070,-0000082,+0004153,-0000800,+0000508,-0002325,15:05:38.438210
0.154096,+0000000,-0000018,+0000009,+0000064,-0000100,+0004132,-0000800,+0000508,-0002325,15:05:38.439214
0.154429,+0000019,-0000019,-0000018,+0000076,-0000101,+0004145,-0000810,+0000760,-0002328,15:05:38.439214
0.154762,+0000008,-0000013,-0000002,+0000080,-0000077,+0004148,-0000810,+0000760,-0002328,15:05:38.439214
0.155095,+0000014,-0000020,+0000000,+0000056,-0000084,+0004148,-0000810,+0000760,-0002328,15:05:38.439214
0.155428,+0000014,-0000029,-0000008,+0000080,-0000094,+0004148,-0000806,+0000536,-0002344,15:05:38.439214
0.155787,+0000031,-0000040,-0000002,+0000054,-0000106,+0004147,-0000806,+0000536,-0002344,15:05:38.439214
0.156094,+0000013,-0000039,-0000018,+0000056,-0000095,+0004151,-0000806,+0000536,-0002344,15:05:38.439214
0.156427,+0000006,-0000005,-0000008,+0000079,-0000097,+0004154,-0000818,+0000518,-0002327,15:05:38.439214
0.156760,+0000010,-0000020,+0000001,+0000073,-0000087,+0004158,-0000818,+0000518,-0002327,15:05:38.439214
0.157093,+0000022,-0000030,-0000010,+0000056,-0000092,+0004148,-0000818,+0000518,-0002327,15:05:38.439214
0.157426,+0000013,-0000021,+0000003,+0000078,-0000092,+0004137,-0000818,+0000524,-0002334,15:05:38.439214
0.157759,+0000026,-0000048,-0000016,+0000069,-0000059,+0004145,-0000818,+0000524,-0002334,15:05:38.439214
0.158092,+0000014,-0000015,+0000000,+0000073,-0000086,+0004129,-0000818,+0000524,-0002334,15:05:38.439214
0.158425,+0000014,-0000024,-0000026,+0000070,-0000096,+0004143,-0000810,+0000516,-0002339,15:05:38.439214
0.158758,-0000009,+0000003,+0000012,+0000044,-0000107,+0004146,-0000810,+0000516,-0002339,15:05:38.439214
0.159091,+0000022,-0000044,-0000019,+0000076,-0000108,+0004143,-0000810,+0000516,-0002339,15:05:38.439214
0.159424,+0000013,-0000021,-0000006,+0000066,-0000087,+0004155,-0000818,+0000516,-0002307,15:05:38.439214
0.159757,+0000024,-0000018,-0000006,+0000071,-0000076,+0004146,-0000818,+0000516,-0002307,15:05:38.439214
0.160090,+0000002,-0000018,-0000005,+0000068,-0000090,+0004170,-0000818,+0000516,-0002307,15:05:38.439214
0.160423,+0000025,-0000018,-0000010,+0000073,-0000091,+0004162,-0000800,+0000498,-0002320,15:05:38.439214
0.160756,-0000003,-0000015,-0000003,+0000072,-0000079,+0004150,-0000800,+0000498,-0002320,15:05:38.439214
0.161089,+0000009,-0000026,-0000005,+0000065,-0000085,+0004134,-0000800,+0000498,-0002320,15:05:38.439214
0.161422,+0000022,-0000037,-0000008,+0000082,-0000085,+0004148,-0000802,+0000518,-0002329,15:05:38.439214
0.161755,+0000019,-0000036,-0000013,+0000048,-0000092,+0004148,-0000802,+0000518,-0002329,15:05:38.439214
0.162088,+0000011,-0000015,-0000007,+0000051,-0000082,+0004147,-0000802,+0000518,-0002329,15:05:38.439214
0.162441,+0000009,-0000016,-0000011,+0000085,-0000079,+0004161,-0000818,+0000522,-0002303,15:05:38.439214
0.162754,+0000000,-0000008,-0000002,+0000057,-0000092,+0004159,-0000818,+0000522,-0002303,15:05:38.439214
0.163087,+0000019,-0000029,-0000003,+0000074,-0000066,+0004140,-0000818,+0000522,-0002303,15:05:38.439214
0.163420,+0000016,-0000022,-0000015,+0000067,-0000090,+0004140,-0000818,+0000530,-0002316,15:05:38.439214
0.163753,+0000020,-0000038,-0000008,+0000068,-0000069,+0004140,-0000818,+0000530,-0002316,15:05:38.439214
0.164086,+0000003,-0000029,-0000003,+0000073,-0000085,+0004152,-0000818,+0000530,-0002316,15:05:38.439214
0.164419,+0000008,-0000015,-0000010,+0000075,-0000086,+0004160,-0000798,+0000516,-0002335,15:05:38.439214
0.164755,+0000013,-0000024,-0000014,+0000052,-0000090,+0004147,-0000798,+0000516,-0002335,15:05:38.439214
0.165085,+0000014,-0000037,-0000002,+0000058,-0000100,+0004146,-0000798,+0000516,-0002335,15:05:38.439214
0.165418,+0000011,-0000021,-0000010,+0000064,-0000080,+0004153,-0000802,+0000494,-0002320,15:05:38.439214
0.165751,+0000016,-0000027,-0000019,+0000054,-0000095,+0004145,-0000802,+0000494,-0002320,15:05:38.439214
0.166123,+0000024,-0000018,-0000007,+0000072,-0000094,+0004164,-0000802,+0000494,-0002320,15:05:38.439214
0.166417,+0000003,-0000018,-0000018,+0000060,-0000114,+0004142,-0000814,+0000528,-0002320,15:05:38.439214
0.166750,+0000011,-0000018,-0000008,+0000077,-0000082,+0004151,-0000814,+0000528,-0002320,15:05:38.439214
0.167205,+0000014,-0000022,-0000004,+0000071,-0000070,+0004141,-0000814,+0000528,-0002320,15:05:38.439214
0.167416,+0000028,-0000040,-0000014,+0000058,-0000091,+0004141,-0000806,+0000498,-0002343,15:05:38.439214
0.167903,+0000011,-0000018,+0000004,+0000073,-0000077,+0004147,-0000806,+0000498,-0002343,15:05:38.440461
0.168097,+0000011,-0000018,+0000004,+0000075,-0000104,+0004166,-0000806,+0000498,-0002343,15:05:38.440461
0.168421,-0000006,-0000011,-0000005,+0000068,-0000081,+0004151,-0000810,+0000508,-0002321,15:05:38.440461
0.168748,+0000022,-0000021,-0000016,+0000066,-0000095,+0004148,-0000810,+0000508,-0002321,15:05:38.440461
0.169083,+0000027,-0000034,-0000007,+0000074,-0000084,+0004158,-0000810,+0000508,-0002321,15:05:38.440461
0.169414,+0000013,-0000040,-0000008,+0000077,-0000090,+0004154,-0000800,+0000504,-0002324,15:05:38.440461
0.169749,+0000019,-0000029,-0000021,+0000075,-0000072,+0004160,-0000800,+0000504,-0002324,15:05:38.440461
0.170080,+0000024,-0000027,-0000011,+0000057,-0000097,+0004160,-0000800,+0000504,-0002324,15:05:38.440461
0.170413,-0000008,-0000021,-0000003,+0000072,-0000099,+0004149,-0000808,+0000512,-0002328,15:05:38.440461
0.170746,+0000015,-0000010,-0000008,+0000074,-0000070,+0004172,-0000808,+0000512,-0002328,15:05:38.440461
0.171079,+0000018,-0000037,-0000008,+0000066,-0000092,+0004159,-0000808,+0000512,-0002328,15:05:38.440461
0.171414,+0000030,-0000037,-0000010,+0000062,-0000092,+0004142,-0000832,+0000504,-0002349,15:05:38.440461
0.171745,+0000017,-0000020,-0000011,+0000051,-0000102,+0004158,-0000832,+0000504,-0002349,15:05:38.440461
0.172078,+0000006,-0000016,-0000010,+0000053,-0000100,+0004139,-0000832,+0000504,-0002349,15:05:38.440461
0.172411,+0000005,-0000026,-0000016,+0000084,-0000103,+0004142,-0000810,+0000500,-0002349,15:05:38.440461
0.172744,+0000013,-0000026,-0000002,+0000064,-0000118,+0004152,-0000810,+0000500,-0002349,15:05:38.440461
0.173077,+0000019,-0000040,-0000005,+0000068,-0000105,+0004139,-0000810,+0000500,-0002349,15:05:38.440461
0.173410,+0000025,-0000032,-0000021,+0000070,-0000091,+0004135,-0000810,+0000516,-0002349,15:05:38.440461
0.173743,+0000017,-0000021,+0000006,+0000059,-0000070,+0004137,-0000810,+0000516,-0002349,15:05:38.440461
0.174076,+0000003,-0000008,-0000016,+0000059,-0000088,+0004162,-0000810,+0000516,-0002349,15:05:38.440461
0.174409,+0000013,-0000023,-0000007,+0000058,-0000082,+0004154,-0000810,+0000514,-0002326,15:05:38.440461
0.174742,+0000017,-0000021,-0000002,+0000077,-0000075,+0004167,-0000810,+0000514,-0002326,15:05:38.440461
0.175075,+0000015,-0000035,-0000029,+0000068,-0000084,+0004151,-0000810,+0000514,-0002326,15:05:38.440461
0.175408,+0000011,-0000018,+0000008,+0000073,-0000080,+0004155,-0000808,+0000498,-0002361,15:05:38.440461
0.175741,+0000011,-0000040,-0000021,+0000070,-0000093,+0004172,-0000808,+0000498,-0002361,15:05:38.440461
0.176074,+0000007,-0000011,-0000007,+0000062,-0000084,+0004153,-0000808,+0000498,-0002361,15:05:38.440461
0.176407,+0000008,-0000013,-0000002,+0000067,-0000089,+0004138,-0000818,+0000510,-0002333,15:05:38.440461
0.176740,+0000006,-0000023,-0000002,+0000094,-0000078,+0004137,-0000818,+0000510,-0002333,15:05:38.440461
0.177073,+0000003,-0000027,+0000000,+0000096,-0000092,+0004150,-0000818,+0000510,-0002333,15:05:38.440461
0.177406,+0000027,-0000048,-0000016,+0000068,-0000085,+0004155,-0000810,+0000506,-0002323,15:05:38.440461
0.177739,+0000005,-0000014,-0000011,+0000072,-0000100,+0004149,-0000810,+0000506,-0002323,15:05:38.440461
0.178072,+0000006,-0000010,-0000013,+0000085,-0000097,+0004143,-0000810,+0000506,-0002323,15:05:38.440461
0.178405,+0000009,-0000027,-0000005,+0000077,-0000082,+0004139,-0000798,+0000502,-0002316,15:05:38.440461
0.178738,+0000011,-0000010,-0000006,+0000062,-0000098,+0004176,-0000798,+0000502,-0002316,15:05:38.440461
0.179071,+0000014,-0000014,+0000000,+0000074,-0000085,+0004166,-0000798,+0000502,-0002316,15:05:38.440461
0.179404,+0000025,-0000040,-0000019,+0000066,-0000101,+0004159,-0000820,+0000514,-0002340,15:05:38.440461
0.179737,-0000006,-0000013,-0000005,+0000103,-0000085,+0004131,-0000820,+0000514,-0002340,15:05:38.440461
0.180070,+0000022,-0000033,-0000018,+0000067,-0000091,+0004154,-0000820,+0000514,-0002340,15:05:38.440461
0.180403,+0000017,-0000016,+0000005,+0000076,-0000086,+0004143,-0000814,+0000510,-0002343,15:05:38.440461
0.180736,+0000019,-0000035,-0000007,+0000073,-0000079,+0004133,-0000814,+0000510,-0002343,15:05:38.440461
0.181069,+0000021,-0000037,-0000005,+0000068,-0000093,+0004157,-0000814,+0000510,-0002343,15:05:38.440461
0.181402,+0000016,-0000019,-0000015,+0000079,-0000081,+0004151,-0000818,+0000518,-0002321,15:05:38.440461
0.181735,+0000025,-0000019,-0000013,+0000066,-0000083,+0004153,-0000818,+0000518,-0002321,15:05:38.440461
0.182068,+0000018,+0000002,-0000002,+0000079,-0000080,+0004158,-0000818,+0000518,-0002321,15:05:38.440461
0.182401,-0000002,-0000027,-0000005,+0000067,-0000092,+0004116,-0000816,+0000506,-0002330,15:05:38.440461
0.182734,+0000014,-0000027,-0000002,+0000075,-0000084,+0004159,-0000816,+0000506,-0002330,15:05:38.440461
0.183067,+0000041,-0000045,-0000018,+0000055,-0000087,+0004159,-0000816,+0000506,-0002330,15:05:38.440461
0.183400,+0000009,-0000026,-0000008,+0000054,-0000106,+0004152,-0000806,+0000498,-0002309,15:05:38.440461
0.183733,-0000008,+0000001,+0000000,+0000072,-0000094,+0004130,-0000806,+0000498,-0002309,15:05:38.440461
0.184066,+0000003,-0000002,-0000008,+0000084,-0000083,+0004137,-0000806,+0000498,-0002309,15:05:38.440461
0.184399,+0000019,-0000028,-0000018,+0000084,-0000081,+0004154,-0000804,+0000512,-0002317,15:05:38.440461
0.184732,+0000018,-0000027,-0000007,+0000079,-0000094,+0004142,-0000804,+0000512,-0002317,15:05:38.440461
0.185065,+0000022,-0000043,-0000010,+0000078,-0000082,+0004154,-0000804,+0000512,-0002317,15:05:38.441466
0.185398,+0000017,-0000020,-0000008,+0000054,-0000079,+0004133,-0000810,+0000530,-0002352,15:05:38.441466
0.185744,-0000003,-0000018,-0000003,+0000074,-0000079,+0004148,-0000810,+0000530,-0002352,15:05:38.441466
0.186064,+0000020,-0000029,-0000019,+0000071,-0000065,+0004151,-0000810,+0000530,-0002352,15:05:38.441466
0.186397,+0000011,-0000019,+0000001,+0000042,-0000076,+0004145,-0000814,+0000500,-0002336,15:05:38.441466
0.186743,+0000024,-0000039,-0000013,+0000076,-0000082,+0004142,-0000814,+0000500,-0002336,15:05:38.441466
0.187063,+0000022,-0000018,-0000019,+0000063,-0000068,+0004147,-0000814,+0000500,-0002336,15:05:38.441466
0.187396,+0000021,-0000013,-0000004,+0000060,-0000076,+0004156,-0000818,+0000500,-0002319,15:05:38.441466
0.187742,-0000003,-0000023,-0000019,+0000061,-0000104,+0004151,-0000818,+0000500,-0002319,15:05:38.441466
0.188062,+0000016,-0000005,+0000000,+0000048,-0000079,+0004142,-0000818,+0000500,-0002319,15:05:38.441466
0.188395,+0000011,-0000032,-0000013,+0000062,-0000083,+0004168,-0000802,+0000508,-0002335,15:05:38.441466
0.188741,+0000010,-0000035,-0000015,+0000069,-0000110,+0004140,-0000802,+0000508,-0002335,15:05:38.441466
0.189061,+0000005,-0000026,+0000001,+0000061,-0000108,+0004139,-0000802,+0000508,-0002335,15:05:38.441466
0.189394,+0000010,-0000021,-0000019,+0000077,-0000080,+0004161,-0000810,+0000506,-0002300,15:05:38.441466
0.189740,+0000009,-0000015,-0000005,+0000063,-0000088,+0004168,-0000810,+0000506,-0002300,15:05:38.441466
0.190060,+0000010,-0000023,-0000010,+0000084,-0000105,+0004160,-0000810,+0000506,-0002300,15:05:38.441466
0.190393,+0000015,-0000026,-0000007,+0000062,-0000086,+0004124,-0000810,+0000514,-0002332,15:05:38.441466
0.190739,+0000024,-0000040,-0000008,+0000068,-0000092,+0004147,-0000810,+0000514,-0002332,15:05:38.441466
0.191059,+0000019,-0000023,-0000011,+0000077,-0000078,+0004150,-0000810,+0000514,-0002332,15:05:38.441466
0.191392,+0000013,-0000011,-0000008,+0000064,-0000096,+0004162,-0000794,+0000530,-0002329,15:05:38.441466
0.191728,+0000003,-0000022,-0000002,+0000068,-0000080,+0004144,-0000794,+0000530,-0002329,15:05:38.441466
0.192058,+0000009,-0000021,-0000013,+0000065,-0000101,+0004140,-0000794,+0000530,-0002329,15:05:38.441466
0.192391,+0000030,-0000042,-0000003,+0000068,-0000090,+0004145,-0000818,+0000504,-0002305,15:05:38.441466
0.192724,+0000027,-0000028,-0000016,+0000071,-0000080,+0004158,-0000818,+0000504,-0002305,15:05:38.441466
0.193057,+0000009,-0000026,-0000004,+0000062,-0000109,+0004131,-0000818,+0000504,-0002305,15:05:38.441466
0.193390,+0000011,-0000031,-0000008,+0000064,-0000104,+0004128,-0000810,+0000512,-0002318,15:05:38.441466
0.193723,+0000016,-0000016,-0000005,+0000067,-0000091,+0004160,-0000810,+0000512,-0002318,15:05:38.441466
0.194144,+0000005,-0000014,+0000003,+0000070,-0000070,+0004137,-0000810,+0000512,-0002318,15:05:38.441466
0.194389,+0000005,-0000023,-0000003,+0000089,-0000064,+0004164,-0000820,+0000514,-0002310,15:05:38.441466
0.194722,+0000019,-0000039,-0000014,+0000060,-0000063,+0004155,-0000820,+0000514,-0002310,15:05:38.441466
0.195057,+0000011,-0000038,-0000003,+0000074,-0000076,+0004132,-0000820,+0000514,-0002310,15:05:38.488140
0.195388,+0000013,-0000024,-0000018,+0000072,-0000102,+0004142,-0000818,+0000510,-0002321,15:05:38.488140
0.195726,-0000002,+0000003,+0000011,+0000062,-0000112,+0004142,-0000818,+0000510,-0002321,15:05:38.488140
0.196331,+0000011,-0000029,-0000005,+0000071,-0000099,+0004155,-0000818,+0000510,-0002321,15:05:38.488140
0.196543,+0000011,-0000012,-0000002,+0000088,-0000073,+0004147,-0000812,+0000510,-0002325,15:05:38.497143
0.196773,+0000006,-0000012,-0000002,+0000088,-0000098,+0004147,-0000812,+0000510,-0002325,15:05:38.497143
0.197183,+0000008,-0000024,-0000011,+0000068,-0000083,+0004156,-0000812,+0000510,-0002325,15:05:38.497143
0.197384,+0000014,-0000024,-0000005,+0000072,-0000088,+0004173,-0000804,+0000524,-0002354,15:05:38.497143
0.197719,+0000011,-0000015,-0000011,+0000077,-0000111,+0004139,-0000804,+0000524,-0002354,15:05:38.497143
0.198053,-0000001,-0000032,+0000000,+0000088,-0000095,+0004154,-0000804,+0000524,-0002354,15:05:38.497143
0.198386,+0000021,-0000037,-0000004,+0000069,-0000081,+0004171,-0000822,+0000514,-0002308,15:05:38.497143
0.198718,+0000022,-0000037,-0000016,+0000066,-0000097,+0004159,-0000822,+0000514,-0002308,15:05:38.497143
0.199052,+0000007,-0000015,+0000002,+0000076,-0000076,+0004150,-0000822,+0000514,-0002308,15:05:38.497143
0.199384,+0000027,-0000026,-0000015,+0000068,-0000108,+0004141,-0000794,+0000508,-0002327,15:05:38.497143
0.199717,+0000003,-0000028,-0000006,+0000082,-0000083,+0004142,-0000794,+0000508,-0002327,15:05:38.497143
0.200051,+0000014,-0000021,-0000021,+0000066,-0000082,+0004135,-0000794,+0000508,-0002327,15:05:38.497143
0.200383,+0000013,-0000040,+0000006,+0000077,-0000086,+0004152,-0000820,+0000516,-0002325,15:05:38.497143
0.200716,+0000016,-0000019,-0000011,+0000072,-0000087,+0004150,-0000820,+0000516,-0002325,15:05:38.497143
0.201049,+0000019,-0000016,-0000004,+0000076,-0000060,+0004159,-0000820,+0000516,-0002325,15:05:38.497143
0.201382,+0000006,-0000020,-0000015,+0000072,-0000105,+0004164,-0000806,+0000508,-0002312,15:05:38.498144
0.201717,+0000011,+0000001,-0000011,+0000077,-0000080,+0004175,-0000806,+0000508,-0002312,15:05:38.498144
0.202048,+0000008,-0000037,+0000000,+0000072,-0000108,+0004158,-0000806,+0000508,-0002312,15:05:38.498144
0.202381,+0000042,-0000038,-0000007,+0000054,-0000094,+0004177,-0000808,+0000524,-0002335,15:05:38.498144
0.202724,+0000031,-0000029,-0000010,+0000060,-0000080,+0004152,-0000808,+0000524,-0002335,15:05:38.498144
0.203047,+0000013,-0000026,-0000010,+0000065,-0000096,+0004155,-0000808,+0000524,-0002335,15:05:38.498144
0.203556,+0000005,-0000001,+0000008,+0000055,-0000089,+0004144,-0000806,+0000516,-0002350,15:05:38.498144
0.203841,+0000022,-0000029,-0000010,+0000070,-0000068,+0004145,-0000806,+0000516,-0002350,15:05:38.498144
0.204047,+0000022,-0000029,-0000002,+0000065,-0000073,+0004160,-0000806,+0000516,-0002350,15:05:38.498144
0.204379,+0000018,-0000035,-0000008,+0000063,-0000101,+0004172,-0000806,+0000516,-0002350,15:05:38.498144
0.204712,+0000021,-0000029,-0000013,+0000067,-0000094,+0004159,-0000806,+0000516,-0002350,15:05:38.498144
0.205045,+0000016,-0000019,-0000016,+0000048,-0000096,+0004136,-0000806,+0000516,-0002350,15:05:38.498144
0.205380,+0000000,-0000023,-0000008,+0000080,-0000085,+0004130,-0000802,+0000500,-0002318,15:05:38.498144
0.205712,+0000010,-0000007,-0000011,+0000063,-0000093,+0004143,-0000802,+0000500,-0002318,15:05:38.498144
0.206044,+0000025,-0000021,-0000008,+0000060,-0000105,+0004137,-0000802,+0000500,-0002318,15:05:38.498144
0.206377,+0000005,-0000029,+0000001,+0000044,-0000113,+0004133,-0000806,+0000514,-0002321,15:05:38.498144
0.206711,+0000024,-0000037,-0000013,+0000065,-0000110,+0004135,-0000806,+0000514,-0002321,15:05:38.498144
0.207044,+0000030,-0000024,-0000012,+0000054,-0000093,+0004155,-0000806,+0000514,-0002321,15:05:38.498144
0.207377,-0000005,-0000019,-0000010,+0000065,-0000086,+0004140,-0000808,+0000512,-0002330,15:05:38.498144
0.207722,+0000003,-0000023,-0000008,+0000078,-0000078,+0004150,-0000808,+0000512,-0002330,15:05:38.498144
0.208042,+0000017,-0000020,-0000012,+0000068,-0000094,+0004156,-0000808,+0000512,-0002330,15:05:38.498144
0.208375,+0000021,-0000035,-0000015,+0000093,-0000093,+0004143,-0000816,+0000504,-0002303,15:05:38.498144
0.208708,+0000013,-0000026,+0000000,+0000076,-0000084,+0004158,-0000816,+0000504,-0002303,15:05:38.498144
0.209041,+0000010,-0000024,-0000007,+0000072,-0000083,+0004149,-0000816,+0000504,-0002303,15:05:38.498144
0.209374,+0000003,-0000008,+0000003,+0000058,-0000082,+0004153,-0000804,+0000518,-0002326,15:05:38.498144
0.209707,+0000008,-0000024,-0000016,+0000064,-0000084,+0004147,-0000804,+0000518,-0002326,15:05:38.498144
0.210040,+0000013,-0000019,+0000000,+0000066,-0000093,+0004152,-0000804,+0000518,-0002326,15:05:38.498144
0.210373,+0000030,-0000045,-0000010,+0000064,-0000084,+0004152,-0000806,+0000512,-0002356,15:05:38.498144
0.210706,+0000011,-0000040,-0000022,+0000076,-0000085,+0004144,-0000806,+0000512,-0002356,15:05:38.498144
0.211039,+0000002,-0000024,-0000011,+0000064,-0000082,+0004134,-0000806,+0000512,-0002356,15:05:38.498144
0.211372,+0000014,-0000002,-0000007,+0000062,-0000107,+0004154,-0000794,+0000516,-0002336,15:05:38.498144
0.211705,+0000013,-0000018,-0000008,+0000067,-0000087,+0004143,-0000794,+0000516,-0002336,15:05:38.498144
0.212038,+0000020,-0000029,-0000002,+0000064,-0000100,+0004138,-0000794,+0000516,-0002336,15:05:38.498144
0.212371,+0000028,-0000035,-0000021,+0000066,-0000088,+0004142,-0000812,+0000510,-0002354,15:05:38.498144
0.212704,+0000021,-0000007,+0000001,+0000074,-0000079,+0004139,-0000812,+0000510,-0002354,15:05:38.498144
0.213037,+0000016,-0000026,-0000019,+0000066,-0000076,+0004160,-0000812,+0000510,-0002354,15:05:38.498144
0.213370,+0000008,-0000010,-0000002,+0000068,-0000092,+0004153,-0000806,+0000520,-0002356,15:05:38.498144
0.213703,+0000010,-0000024,+0000001,+0000071,-0000090,+0004147,-0000806,+0000520,-0002356,15:05:38.498144
0.214036,+0000018,-0000037,-0000018,+0000075,-0000073,+0004148,-0000806,+0000520,-0002356,15:05:38.498144
0.214369,+0000017,-0000019,-0000002,+0000088,-0000085,+0004164,-0000802,+0000510,-0002336,15:05:38.498144
0.214702,+0000013,-0000011,-0000007,+0000056,-0000091,+0004144,-0000802,+0000510,-0002336,15:05:38.498144
0.215035,+0000008,-0000018,-0000019,+0000058,-0000102,+0004155,-0000802,+0000510,-0002336,15:05:38.498144
0.215368,+0000005,-0000016,-0000008,+0000064,-0000092,+0004124,-0000806,+0000510,-0002347,15:05:38.498144
0.215701,+0000017,-0000018,-0000008,+0000078,-0000100,+0004159,-0000806,+0000510,-0002347,15:05:38.498144
0.216034,+0000013,-0000028,-0000018,+0000056,-0000114,+0004139,-0000806,+0000510,-0002347,15:05:38.499142
0.216367,+0000032,-0000027,-0000016,+0000072,-0000093,+0004162,-0000810,+0000514,-0002350,15:05:38.499142
0.216700,+0000008,-0000023,-0000002,+0000073,-0000093,+0004154,-0000810,+0000514,-0002350,15:05:38.499142
0.217033,+0000016,-0000024,-0000005,+0000064,-0000084,+0004143,-0000810,+0000514,-0002350,15:05:38.499142
0.217366,-0000002,-0000003,-0000013,+0000051,-0000074,+0004166,-0000810,+0000512,-0002327,15:05:38.499142
0.217699,+0000022,-0000022,-0000005,+0000071,-0000056,+0004143,-0000810,+0000512,-0002327,15:05:38.499142
0.218032,+0000016,-0000037,-0000008,+0000076,-0000079,+0004149,-0000810,+0000512,-0002327,15:05:38.499142
0.218365,+0000022,-0000035,-0000018,+0000062,-0000085,+0004143,-0000810,+0000522,-0002321,15:05:38.499142
0.218698,+0000010,-0000015,-0000002,+0000073,-0000090,+0004155,-0000810,+0000522,-0002321,15:05:38.499142
0.219031,+0000010,-0000013,-0000018,+0000060,-0000079,+0004152,-0000810,+0000522,-0002321,15:05:38.499142
0.219364,+0000000,-0000018,-0000005,+0000073,-0000090,+0004161,-0000798,+0000500,-0002328,15:05:38.499142
0.219697,+0000021,-0000011,-0000010,+0000057,-0000089,+0004146,-0000798,+0000500,-0002328,15:05:38.499142
0.220101,+0000021,-0000030,-0000003,+0000053,-0000084,+0004160,-0000798,+0000500,-0002328,15:05:38.499142
0.220363,+0000016,-0000031,-0000011,+0000080,-0000094,+0004137,-0000794,+0000508,-0002373,15:05:38.499142
0.220696,+0000000,-0000018,+0000001,+0000074,-0000071,+0004143,-0000794,+0000508,-0002373,15:05:38.499142
0.221029,+0000019,-0000013,-0000015,+0000064,-0000085,+0004162,-0000794,+0000508,-0002373,15:05:38.499142
0.221362,-0000002,-0000015,-0000008,+0000044,-0000088,+0004136,-0000820,+0000504,-0002340,15:05:38.499142
0.221695,+0000024,-0000026,+0000001,+0000061,-0000089,+0004134,-0000820,+0000504,-0002340,15:05:38.499142
0.222028,+0000018,-0000039,-0000013,+0000063,-0000087,+0004140,-0000820,+0000504,-0002340,15:05:38.499142
0.222361,+0000035,-0000022,-0000008,+0000060,-0000075,+0004141,-0000798,+0000508,-0002364,15:05:38.499142
0.222694,+0000004,-0000030,-0000007,+0000078,-0000073,+0004153,-0000798,+0000508,-0002364,15:05:38.499142
0.223027,+0000005,-0000002,-0000015,+0000076,-0000089,+0004141,-0000798,+0000508,-0002364,15:05:38.499142
0.223360,-0000002,-0000013,+0000008,+0000073,-0000080,+0004150,-0000820,+0000490,-0002366,15:05:38.499142
0.223693,+0000027,-0000032,-0000008,+0000068,-0000091,+0004148,-0000820,+0000490,-0002366,15:05:38.499142
0.224026,+0000022,-0000046,-0000014,+0000056,-0000076,+0004146,-0000820,+0000490,-0002366,15:05:38.499142
0.224359,+0000011,-0000016,-0000007,+0000059,-0000094,+0004151,-0000814,+0000514,-0002335,15:05:38.499142
0.224692,+0000006,-0000019,-0000002,+0000074,-0000098,+0004146,-0000814,+0000514,-0002335,15:05:38.499142
0.225025,+0000013,-0000013,-0000002,+0000070,-0000091,+0004153,-0000814,+0000514,-0002335,15:05:38.499142
0.225358,+0000022,-0000028,-0000013,+0000076,-0000084,+0004142,-0000804,+0000504,-0002367,15:05:38.499142
0.225691,+0000003,-0000035,-0000008,+0000073,-0000093,+0004153,-0000804,+0000504,-0002367,15:05:38.499142
0.226024,+0000035,-0000037,-0000016,+0000067,-0000088,+0004136,-0000804,+0000504,-0002367,15:05:38.499142
0.226357,+0000005,-0000023,-0000021,+0000056,-0000070,+0004167,-0000798,+0000524,-0002357,15:05:38.499142
0.226690,-0000001,-0000004,-0000007,+0000065,-0000089,+0004182,-0000798,+0000524,-0002357,15:05:38.499142
0.227023,+0000008,-0000010,-0000008,+0000067,-0000083,+0004160,-0000798,+0000524,-0002357,15:05:38.499142
0.227356,+0000032,-0000026,-0000016,+0000060,-0000085,+0004149,-0000814,+0000516,-0002361,15:05:38.499142
0.227689,+0000014,-0000029,+0000000,+0000071,-0000096,+0004160,-0000814,+0000516,-0002361,15:05:38.499142
0.228022,+0000019,-0000019,-0000007,+0000059,-0000078,+0004145,-0000814,+0000516,-0002361,15:05:38.499142
0.228355,+0000010,-0000013,-0000013,+0000043,-0000078,+0004151,-0000812,+0000508,-0002316,15:05:38.499142
0.228688,+0000016,-0000011,-0000003,+0000061,-0000095,+0004138,-0000812,+0000508,-0002316,15:05:38.499142
0.229021,+0000011,-0000024,-0000011,+0000057,-0000090,+0004149,-0000812,+0000508,-0002316,15:05:38.499142
0.229354,+0000009,-0000021,-0000007,+0000068,-0000073,+0004151,-0000816,+0000504,-0002371,15:05:38.499142
0.229687,+0000025,-0000023,-0000024,+0000055,-0000096,+0004169,-0000816,+0000504,-0002371,15:05:38.499142
0.230020,+0000022,-0000022,+0000001,+0000058,-0000077,+0004153,-0000816,+0000504,-0002371,15:05:38.499142
0.230353,+0000011,-0000029,-0000016,+0000062,-0000081,+0004153,-0000802,+0000504,-0002365,15:05:38.499142
0.230686,+0000011,-0000008,-0000016,+0000058,-0000089,+0004147,-0000802,+0000504,-0002365,15:05:38.499142
0.231019,-0000001,-0000002,+0000003,+0000076,-0000092,+0004158,-0000802,+0000504,-0002365,15:05:38.499142
0.231352,+0000017,-0000035,-0000016,+0000062,-0000096,+0004161,-0000800,+0000510,-0002349,15:05:38.500142
0.231685,+0000016,-0000034,+0000001,+0000071,-0000092,+0004148,-0000800,+0000510,-0002349,15:05:38.500142
0.232018,+0000014,-0000032,-0000005,+0000088,-0000102,+0004148,-0000800,+0000510,-0002349,15:05:38.500142
0.232351,+0000009,-0000024,-0000010,+0000059,-0000105,+0004164,-0000810,+0000504,-0002327,15:05:38.500142
0.232684,+0000025,-0000018,-0000005,+0000060,-0000082,+0004164,-0000810,+0000504,-0002327,15:05:38.500142
0.233017,-0000011,-0000007,-0000002,+0000043,-0000084,+0004153,-0000810,+0000504,-0002327,15:05:38.500142
0.233350,+0000011,-0000018,-0000007,+0000033,-0000074,+0004155,-0000812,+0000514,-0002378,15:05:38.500142
0.233683,+0000011,-0000024,-0000014,+0000077,-0000078,+0004153,-0000812,+0000514,-0002378,15:05:38.500142
0.234016,+0000019,-0000042,-0000011,+0000048,-0000092,+0004168,-0000812,+0000514,-0002378,15:05:38.500142
0.234349,+0000010,-0000015,-0000010,+0000069,-0000097,+0004157,-0000812,+0000506,-0002342,15:05:38.500142
0.234682,+0000010,-0000021,-0000008,+0000073,-0000091,+0004165,-0000812,+0000506,-0002342,15:05:38.500142
0.235015,-0000008,-0000016,-0000004,+0000068,-0000069,+0004160,-0000812,+0000506,-0002342,15:05:38.500142
0.235348,+0000005,-0000027,-0000011,+0000068,-0000083,+0004168,-0000836,+0000492,-0002343,15:05:38.500142
0.235681,+0000024,-0000037,-0000004,+0000055,-0000081,+0004164,-0000836,+0000492,-0002343,15:05:38.500142
0.236014,+0000030,-0000029,-0000015,+0000039,-0000089,+0004162,-0000836,+0000492,-0002343,15:05:38.500142
0.236347,+0000014,-0000026,-0000008,+0000078,-0000087,+0004162,-0000828,+0000508,-0002332,15:05:38.500142
0.236680,-0000003,-0000016,-0000007,+0000054,-0000084,+0004148,-0000828,+0000508,-0002332,15:05:38.500142
0.237013,+0000008,-0000002,-0000004,+0000074,-0000099,+0004136,-0000828,+0000508,-0002332,15:05:38.500142
0.237346,+0000030,-0000029,-0000010,+0000046,-0000081,+0004148,-0000810,+0000504,-0002328,15:05:38.500142
0.237679,+0000017,-0000034,-0000013,+0000081,-0000072,+0004151,-0000810,+0000504,-0002328,15:05:38.500142
0.238012,+0000025,-0000034,-0000008,+0000052,-0000091,+0004119,-0000810,+0000504,-0002328,15:05:38.500142
0.238345,+0000020,-0000013,-0000014,+0000068,-0000103,+0004138,-0000812,+0000528,-0002372,15:05:38.500142
0.238678,-0000003,-0000013,+0000009,+0000060,-0000099,+0004150,-0000812,+0000528,-0002372,15:05:38.500142
0.239011,+0000011,-0000037,-0000023,+0000068,-0000099,+0004133,-0000812,+0000528,-0002372,15:05:38.500142
0.239344,+0000022,-0000011,+0000000,+0000075,-0000071,+0004153,-0000802,+0000516,-0002368,15:05:38.500142
0.239677,+0000022,-0000040,-0000010,+0000059,-0000094,+0004139,-0000802,+0000516,-0002368,15:05:38.500142
0.240010,+0000017,-0000010,-0000015,+0000070,-0000081,+0004167,-0000802,+0000516,-0002368,15:05:38.500142
0.240343,+0000005,-0000008,+0000006,+0000082,-0000084,+0004147,-0000820,+0000520,-0002346,15:05:38.500142
0.240676,+0000011,-0000017,-0000010,+0000065,-0000100,+0004156,-0000820,+0000520,-0002346,15:05:38.500142
0.241009,+0000011,-0000017,-0000010,+0000057,-0000085,+0004152,-0000820,+0000520,-0002346,15:05:38.500142
0.241342,+0000030,-0000034,-0000007,+0000044,-0000084,+0004149,-0000816,+0000514,-0002355,15:05:38.500142
0.241675,+0000005,-0000020,-0000008,+0000067,-0000099,+0004156,-0000816,+0000514,-0002355,15:05:38.500142
0.242008,+0000018,-0000018,-0000010,+0000054,-0000086,+0004150,-0000816,+0000514,-0002355,15:05:38.500142
0.242341,+0000011,-0000023,-0000008,+0000060,-0000079,+0004157,-0000800,+0000502,-0002366,15:05:38.500142
0.242674,+0000000,-0000008,-0000007,+0000067,-0000107,+0004131,-0000800,+0000502,-0002366,15:05:38.500142
0.243007,+0000019,-0000021,-0000015,+0000067,-0000081,+0004139,-0000800,+0000502,-0002366,15:05:38.500142
0.243340,+0000009,-0000031,-0000024,+0000054,-0000104,+0004157,-0000834,+0000512,-0002345,15:05:38.500142
0.243673,+0000016,-0000034,-0000008,+0000061,-0000101,+0004149,-0000834,+0000512,-0002345,15:05:38.500142
0.244006,+0000021,-0000037,-0000010,+0000056,-0000088,+0004152,-0000834,+0000512,-0002345,15:05:38.500142
0.244339,+0000005,-0000019,-0000014,+0000039,-0000078,+0004171,-0000802,+0000510,-0002307,15:05:38.500142
0.244672,+0000005,-0000003,-0000002,+0000054,-0000077,+0004146,-0000802,+0000510,-0002307,15:05:38.500142
0.245007,+0000019,-0000031,-0000010,+0000048,-0000107,+0004173,-0000802,+0000510,-0002307,15:05:38.517305
0.245338,+0000011,-0000034,-0000003,+0000059,-0000089,+0004153,-0000800,+0000506,-0002322,15:05:38.517305
0.245677,+0000030,-0000045,-0000018,+0000068,-0000095,+0004165,-0000800,+0000506,-0002322,15:05:38.517305
0.246310,+0000024,-0000031,-0000010,+0000070,-0000081,+0004144,-0000800,+0000506,-0002322,15:05:38.517305
0.246520,-0000003,-0000018,+0000000,+0000077,-0000081,+0004144,-0000814,+0000502,-0002346,15:05:38.517305
0.246745,+0000013,+0000000,-0000013,+0000066,-0000056,+0004150,-0000814,+0000502,-0002346,15:05:38.517305
0.247009,+0000008,-0000018,-0000015,+0000072,-0000092,+0004144,-0000814,+0000502,-0002346,15:05:38.517305
0.247339,+0000007,-0000002,+0000006,+0000067,-0000082,+0004131,-0000806,+0000522,-0002339,15:05:38.517305
0.247685,+0000002,-0000030,-0000016,+0000055,-0000095,+0004148,-0000806,+0000522,-0002339,15:05:38.517305
0.248004,+0000011,-0000002,-0000002,+0000050,-0000085,+0004159,-0000806,+0000522,-0002339,15:05:38.517305
0.248389,+0000017,-0000037,-0000008,+0000067,-0000085,+0004165,-0000806,+0000504,-0002336,15:05:38.517305
0.248681,+0000009,-0000032,-0000011,+0000052,-0000098,+0004149,-0000806,+0000504,-0002336,15:05:38.517305
0.249001,+0000016,-0000018,+0000000,+0000065,-0000068,+0004174,-0000806,+0000504,-0002336,15:05:38.517305
0.249334,+0000022,-0000043,-0000011,+0000072,-0000096,+0004165,-0000798,+0000510,-0002340,15:05:38.517305
0.249700,+0000012,-0000024,-0000008,+0000064,-0000101,+0004157,-0000798,+0000510,-0002340,15:05:38.517305
0.250000,+0000024,-0000032,-0000016,+0000061,-0000096,+0004130,-0000798,+0000510,-0002340,15:05:38.517305
0.250333,+0000005,-0000024,-0000005,+0000060,-0000074,+0004158,-0000818,+0000502,-0002345,15:05:38.517305
0.250666,+0000009,-0000014,-0000010,+0000052,-0000088,+0004152,-0000818,+0000502,-0002345,15:05:38.517305
0.250999,+0000016,-0000038,-0000011,+0000076,-0000088,+0004159,-0000818,+0000502,-0002345,15:05:38.517305
0.251332,+0000019,-0000031,-0000010,+0000053,-0000093,+0004169,-0000792,+0000518,-0002334,15:05:38.517305
0.251665,+0000008,-0000043,-0000008,+0000065,-0000089,+0004141,-0000792,+0000518,-0002334,15:05:38.517305
0.251998,+0000014,-0000019,-0000015,+0000048,-0000074,+0004141,-0000792,+0000518,-0002334,15:05:38.517305
0.252331,+0000011,-0000016,-0000005,+0000046,-0000078,+0004151,-0000802,+0000510,-0002364,15:05:38.517305
0.252664,+0000012,-0000007,-0000015,+0000043,-0000082,+0004175,-0000802,+0000510,-0002364,15:05:38.517305
0.252997,+0000020,-0000023,+0000003,+0000050,-0000084,+0004165,-0000802,+0000510,-0002364,15:05:38.517305
0.253330,+0000028,-0000045,-0000006,+0000047,-0000070,+0004140,-0000796,+0000494,-0002345,15:05:38.517305
0.253663,+0000033,-0000016,-0000002,+0000057,-0000086,+0004135,-0000796,+0000494,-0002345,15:05:38.517305
0.253996,+0000013,-0000008,-0000004,+0000057,-0000079,+0004150,-0000796,+0000494,-0002345,15:05:38.517305
0.254329,-0000002,-0000016,-0000016,+0000056,-0000081,+0004137,-0000810,+0000500,-0002314,15:05:38.517305
0.254662,+0000014,-0000013,+0000000,+0000048,-0000089,+0004130,-0000810,+0000500,-0002314,15:05:38.517305
0.254995,+0000030,-0000034,-0000008,+0000043,-0000100,+0004169,-0000810,+0000500,-0002314,15:05:38.517305
0.255328,+0000020,-0000016,-0000007,+0000056,-0000075,+0004160,-0000802,+0000522,-0002311,15:05:38.517305
0.255661,+0000024,-0000028,-0000016,+0000043,-0000088,+0004149,-0000802,+0000522,-0002311,15:05:38.517305
0.255994,-0000005,-0000005,-0000002,+0000061,-0000082,+0004141,-0000802,+0000522,-0002311,15:05:38.517305
0.256327,-0000002,-0000018,-0000008,+0000068,-0000083,+0004140,-0000814,+0000512,-0002332,15:05:38.517305
0.256660,+0000005,-0000021,-0000011,+0000062,-0000081,+0004147,-0000814,+0000512,-0002332,15:05:38.517305
0.256993,+0000020,-0000032,-0000013,+0000052,-0000090,+0004164,-0000814,+0000512,-0002332,15:05:38.517305
0.257326,+0000030,-0000036,-0000012,+0000056,-0000096,+0004153,-0000822,+0000514,-0002358,15:05:38.517305
0.257659,+0000007,-0000026,-0000015,+0000076,-0000092,+0004150,-0000822,+0000514,-0002358,15:05:38.517305
0.257992,+0000006,-0000007,-0000007,+0000067,-0000071,+0004136,-0000822,+0000514,-0002358,15:05:38.517305
0.258325,+0000011,-0000005,-0000004,+0000045,-0000087,+0004153,-0000822,+0000540,-0002331,15:05:38.517305
0.258658,+0000006,-0000024,-0000007,+0000039,-0000088,+0004134,-0000822,+0000540,-0002331,15:05:38.517305
0.258991,+0000013,-0000040,-0000015,+0000058,-0000077,+0004170,-0000822,+0000540,-0002331,15:05:38.517305
0.259324,+0000030,-0000024,-0000010,+0000054,-0000069,+0004158,-0000798,+0000514,-0002335,15:05:38.517305
0.259657,+0000014,-0000023,-0000014,+0000048,-0000088,+0004154,-0000798,+0000514,-0002335,15:05:38.517305
0.259990,-0000001,-0000015,-0000015,+0000068,-0000089,+0004142,-0000798,+0000514,-0002335,15:05:38.517305
0.260323,+0000003,-0000010,+0000003,+0000063,-0000070,+0004156,-0000798,+0000512,-0002340,15:05:38.517305
0.260656,+0000011,-0000015,+0000000,+0000069,-0000094,+0004135,-0000798,+0000512,-0002340,15:05:38.517305
0.260989,+0000020,-0000037,-0000006,+0000062,-0000100,+0004146,-0000798,+0000512,-0002340,15:05:38.517305
0.261322,+0000014,-0000039,-0000007,+0000052,-0000087,+0004179,-0000812,+0000522,-0002344,15:05:38.517305
0.261655,+0000012,-0000021,-0000005,+0000065,-0000106,+0004159,-0000812,+0000522,-0002344,15:05:38.517305
0.261988,+0000020,-0000018,-0000010,+0000062,-0000106,+0004160,-0000812,+0000522,-0002344,15:05:38.517305
0.262321,+0000016,-0000015,+0000000,+0000056,-0000084,+0004169,-0000812,+0000512,-0002352,15:05:38.517305
0.262654,+0000014,-0000029,-0000016,+0000069,-0000076,+0004141,-0000812,+0000512,-0002352,15:05:38.517305
0.262987,+0000016,-0000024,+0000000,+0000077,-0000091,+0004157,-0000812,+0000512,-0002352,15:05:38.517305
0.263320,+0000022,-0000048,-0000018,+0000061,-0000083,+0004167,-0000808,+0000534,-0002336,15:05:38.517305
0.263653,+0000017,-0000008,-0000010,+0000066,-0000096,+0004134,-0000808,+0000534,-0002336,15:05:38.517305
0.263986,+0000017,+0000004,-0000007,+0000057,-0000087,+0004148,-0000808,+0000534,-0002336,15:05:38.517305
0.264319,+0000010,-0000021,-0000010,+0000066,-0000092,+0004148,-0000796,+0000512,-0002332,15:05:38.517305
0.264652,+0000022,-0000027,+0000000,+0000072,-0000078,+0004141,-0000796,+0000512,-0002332,15:05:38.517305
0.264985,+0000030,-0000059,-0000018,+0000058,-0000076,+0004116,-0000796,+0000512,-0002332,15:05:38.517305
0.265318,+0000016,-0000023,+0000005,+0000043,-0000089,+0004131,-0000814,+0000512,-0002342,15:05:38.517305
0.265651,+0000003,-0000008,+0000000,+0000060,-0000086,+0004149,-0000814,+0000512,-0002342,15:05:38.517305
0.265984,+0000017,-0000027,-0000027,+0000074,-0000105,+0004159,-0000814,+0000512,-0002342,15:05:38.517305
0.266317,+0000001,-0000019,-0000005,+0000069,-0000089,+0004141,-0000808,+0000516,-0002343,15:05:38.517305
0.266650,+0000027,-0000029,-0000005,+0000051,-0000100,+0004142,-0000808,+0000516,-0002343,15:05:38.517305
0.266983,+0000024,-0000037,-0000010,+0000066,-0000069,+0004147,-0000808,+0000516,-0002343,15:05:38.517305
0.267317,+0000018,-0000020,-0000010,+0000049,-0000070,+0004157,-0000822,+0000504,-0002351,15:05:38.517305
0.267649,+0000008,-0000013,-0000011,+0000066,-0000082,+0004159,-0000822,+0000504,-0002351,15:05:38.517305
0.267982,+0000010,-0000014,-0000005,+0000074,-0000107,+0004160,-0000822,+0000504,-0002351,15:05:38.517305
0.268315,+0000009,-0000019,-0000007,+0000052,-0000098,+0004160,-0000828,+0000528,-0002350,15:05:38.517305
0.268648,+0000017,-0000036,-0000008,+0000052,-0000093,+0004157,-0000828,+0000528,-0002350,15:05:38.517305
0.268982,+0000031,-0000024,+0000006,+0000052,-0000102,+0004152,-0000828,+0000528,-0002350,15:05:38.517305
0.269314,+0000011,-0000014,-0000016,+0000058,-0000090,+0004154,-0000812,+0000522,-0002323,15:05:38.517305
0.269647,+0000014,-0000010,-0000013,+0000056,-0000084,+0004171,-0000812,+0000522,-0002323,15:05:38.517305
0.269980,+0000008,-0000021,+0000003,+0000061,-0000078,+0004142,-0000812,+0000522,-0002323,15:05:38.517305
0.270587,+0000020,-0000027,+0000012,+0000060,-0000082,+0004174,-0000816,+0000506,-0002338,15:05:38.517305
0.270887,+0000011,-0000019,-0000008,+0000060,-0000086,+0004145,-0000816,+0000506,-0002338,15:05:38.517305
0.271023,-0000019,+0000006,-0000005,+0000052,-0000086,+0004145,-0000816,+0000506,-0002338,15:05:38.517305
0.271312,+0000025,-0000017,+0000006,+0000064,-0000072,+0004157,-0000802,+0000520,-0002338,15:05:38.517305
0.271647,-0000001,-0000012,-0000025,+0000062,-0000089,+0004144,-0000802,+0000520,-0002338,15:05:38.517305
0.271979,+0000005,-0000013,+0000004,+0000059,-0000107,+0004151,-0000802,+0000520,-0002338,15:05:38.517305
0.272312,+0000018,-0000026,+0000003,+0000058,-0000077,+0004151,-0000808,+0000506,-0002313,15:05:38.517305
0.272645,+0000019,-0000043,-0000012,+0000038,-0000091,+0004157,-0000808,+0000506,-0002313,15:05:38.517305
0.272977,+0000017,-0000039,-0000015,+0000055,-0000090,+0004163,-0000808,+0000506,-0002313,15:05:38.517305
0.273312,+0000014,-0000020,-0000010,+0000066,-0000108,+0004156,-0000812,+0000500,-0002338,15:05:38.517305
0.273643,+0000010,-0000021,+0000000,+0000052,-0000083,+0004136,-0000812,+0000500,-0002338,15:05:38.517305
0.273977,+0000007,-0000018,-0000010,+0000064,-0000088,+0004161,-0000812,+0000500,-0002338,15:05:38.517305
0.274309,+0000009,-0000022,-0000011,+0000066,-0000078,+0004156,-0000836,+0000520,-0002348,15:05:38.517305
0.274643,+0000016,-0000034,-0000007,+0000052,-0000085,+0004142,-0000836,+0000520,-0002348,15:05:38.517305
0.274975,+0000022,-0000037,-0000010,+0000054,-0000080,+0004147,-0000836,+0000520,-0002348,15:05:38.517305
0.275308,+0000002,-0000015,-0000012,+0000035,-0000079,+0004169,-0000810,+0000514,-0002326,15:05:38.517305
0.275641,+0000020,-0000022,-0000020,+0000067,-0000084,+0004146,-0000810,+0000514,-0002326,15:05:38.517305
0.275974,+0000021,-0000027,-0000014,+0000052,-0000100,+0004163,-0000810,+0000514,-0002326,15:05:38.517305
0.276307,+0000010,-0000013,+0000006,+0000070,-0000093,+0004127,-0000814,+0000526,-0002342,15:05:38.517305
0.276640,+0000021,-0000034,-0000010,+0000079,-0000090,+0004148,-0000814,+0000526,-0002342,15:05:38.517305
0.276973,+0000022,-0000037,-0000007,+0000061,-0000095,+0004140,-0000814,+0000526,-0002342,15:05:38.517305
0.277306,+0000025,-0000026,-0000010,+0000060,-0000072,+0004149,-0000832,+0000520,-0002328,15:05:38.517305
0.277639,+0000003,+0000008,+0000001,+0000063,-0000078,+0004138,-0000832,+0000520,-0002328,15:05:38.517305
0.277972,+0000013,-0000026,-0000012,+0000068,-0000088,+0004155,-0000832,+0000520,-0002328,15:05:38.517305
0.278305,+0000009,-0000021,-0000005,+0000062,-0000093,+0004151,-0000796,+0000500,-0002318,15:05:38.517305
0.278638,+0000008,-0000029,-0000013,+0000074,-0000091,+0004151,-0000796,+0000500,-0002318,15:05:38.517305
0.278971,+0000013,-0000029,-0000013,+0000069,-0000108,+0004140,-0000796,+0000500,-0002318,15:05:38.517305
0.279304,+0000000,-0000013,-0000011,+0000040,-0000106,+0004159,-0000798,+0000520,-0002311,15:05:38.517305
0.279637,+0000003,-0000026,-0000010,+0000047,-0000083,+0004137,-0000798,+0000520,-0002311,15:05:38.518306
0.279970,+0000007,-0000011,+0000001,+0000062,-0000084,+0004169,-0000798,+0000520,-0002311,15:05:38.518306
0.280303,+0000020,-0000026,-0000003,+0000064,-0000082,+0004148,-0000814,+0000508,-0002332,15:05:38.518306
0.280636,+0000017,-0000053,-0000005,+0000086,-0000099,+0004150,-0000814,+0000508,-0002332,15:05:38.518306
0.280969,+0000021,-0000014,-0000015,+0000074,-0000110,+0004150,-0000814,+0000508,-0002332,15:05:38.518306
0.281302,+0000002,-0000018,-0000004,+0000050,-0000088,+0004153,-0000808,+0000504,-0002306,15:05:38.518306
0.281635,+0000008,+0000000,-0000005,+0000070,-0000077,+0004158,-0000808,+0000504,-0002306,15:05:38.518306
0.281968,+0000005,-0000021,-0000015,+0000057,-0000074,+0004134,-0000808,+0000504,-0002306,15:05:38.518306
0.282301,+0000020,-0000029,-0000005,+0000068,-0000097,+0004160,-0000824,+0000506,-0002325,15:05:38.518306
0.282634,+0000025,-0000013,-0000011,+0000061,-0000126,+0004152,-0000824,+0000506,-0002325,15:05:38.518306
0.282967,+0000014,-0000019,-0000018,+0000052,-0000093,+0004160,-0000824,+0000506,-0002325,15:05:38.518306
0.283300,+0000008,-0000013,+0000000,+0000073,-0000100,+0004151,-0000802,+0000514,-0002330,15:05:38.518306
0.283633,+0000013,-0000008,-0000005,+0000059,-0000102,+0004147,-0000802,+0000514,-0002330,15:05:38.518306
0.283966,+0000003,-0000028,-0000010,+0000070,-0000077,+0004151,-0000802,+0000514,-0002330,15:05:38.518306
0.284299,+0000008,-0000029,-0000006,+0000048,-0000089,+0004151,-0000800,+0000494,-0002329,15:05:38.518306
0.284632,+0000036,-0000034,-0000010,+0000084,-0000085,+0004149,-0000800,+0000494,-0002329,15:05:38.518306
0.284965,+0000006,-0000032,-0000011,+0000066,-0000081,+0004170,-0000800,+0000494,-0002329,15:05:38.519308
0.285298,+0000030,-0000016,-0000010,+0000067,-0000069,+0004164,-0000804,+0000502,-0002340,15:05:38.519308
0.285631,-0000011,-0000005,+0000000,+0000069,-0000099,+0004166,-0000804,+0000502,-0002340,15:05:38.519308
0.285964,+0000016,-0000026,-0000004,+0000069,-0000086,+0004156,-0000804,+0000502,-0002340,15:05:38.519308
0.286297,+0000024,-0000034,-0000016,+0000067,-0000070,+0004180,-0000810,+0000506,-0002337,15:05:38.519308
0.286630,+0000018,-0000021,-0000012,+0000055,-0000098,+0004167,-0000810,+0000506,-0002337,15:05:38.519308
0.286963,+0000022,-0000031,-0000011,+0000057,-0000089,+0004161,-0000810,+0000506,-0002337,15:05:38.519308
0.287296,+0000006,-0000012,-0000011,+0000066,-0000078,+0004158,-0000808,+0000516,-0002345,15:05:38.519308
0.287629,+0000005,-0000024,-0000006,+0000066,-0000080,+0004128,-0000808,+0000516,-0002345,15:05:38.519308
0.287962,+0000016,-0000038,+0000001,+0000057,-0000085,+0004143,-0000808,+0000516,-0002345,15:05:38.519308
0.288295,+0000011,-0000015,-0000011,+0000066,-0000090,+0004129,-0000802,+0000500,-0002326,15:05:38.519308
0.288628,+0000024,-0000042,-0000011,+0000073,-0000102,+0004148,-0000802,+0000500,-0002326,15:05:38.519308
0.288961,+0000013,-0000018,-0000014,+0000057,-0000076,+0004156,-0000802,+0000500,-0002326,15:05:38.519308
0.289294,-0000002,-0000015,+0000000,+0000048,-0000093,+0004147,-0000802,+0000510,-0002309,15:05:38.519308
0.289628,+0000016,-0000019,-0000003,+0000062,-0000104,+0004154,-0000802,+0000510,-0002309,15:05:38.519308
0.289960,-0000004,-0000029,-0000008,+0000056,-0000104,+0004159,-0000802,+0000510,-0002309,15:05:38.519308
0.290293,+0000028,-0000037,-0000003,+0000060,-0000074,+0004141,-0000810,+0000522,-0002369,15:05:38.519308
0.290628,+0000020,-0000046,-0000018,+0000057,-0000098,+0004152,-0000810,+0000522,-0002369,15:05:38.519308
0.290959,+0000008,-0000023,-0000008,+0000066,-0000109,+0004162,-0000810,+0000522,-0002369,15:05:38.519308
0.291292,+0000000,-0000016,-0000005,+0000076,-0000093,+0004151,-0000812,+0000502,-0002329,15:05:38.519308
0.291628,+0000000,-0000016,+0000000,+0000074,-0000088,+0004133,-0000812,+0000502,-0002329,15:05:38.519308
0.291958,+0000022,-0000029,-0000012,+0000073,-0000082,+0004152,-0000812,+0000502,-0002329,15:05:38.519308
0.292291,+0000019,-0000042,-0000007,+0000066,-0000075,+0004154,-0000818,+0000518,-0002321,15:05:38.519308
0.292629,+0000013,-0000029,-0000011,+0000062,-0000100,+0004145,-0000818,+0000518,-0002321,15:05:38.519308
0.292957,+0000005,+0000001,+0000000,+0000069,-0000093,+0004156,-0000818,+0000518,-0002321,15:05:38.519308
0.293290,+0000013,-0000010,-0000007,+0000078,-0000095,+0004147,-0000820,+0000504,-0002326,15:05:38.519308
0.293628,+0000006,-0000032,-0000013,+0000056,-0000080,+0004145,-0000820,+0000504,-0002326,15:05:38.519308
0.293956,+0000016,-0000022,-0000005,+0000050,-0000091,+0004153,-0000820,+0000504,-0002326,15:05:38.519308
0.294289,+0000019,-0000045,-0000016,+0000064,-0000096,+0004154,-0000836,+0000512,-0002325,15:05:38.519308
0.294627,+0000020,-0000021,-0000010,+0000066,-0000088,+0004165,-0000836,+0000512,-0002325,15:05:38.519308
0.294955,-0000009,-0000005,+0000005,+0000058,-0000079,+0004152,-0000836,+0000512,-0002325,15:05:38.590971
0.295291,+0000022,-0000013,-0000014,+0000072,-0000091,+0004142,-0000794,+0000506,-0002347,15:05:38.590971
0.295631,+0000010,-0000018,-0000011,+0000047,-0000090,+0004139,-0000794,+0000506,-0002347,15:05:38.590971
0.296297,-0000006,+0000000,-0000003,+0000074,-0000092,+0004153,-0000794,+0000506,-0002347,15:05:38.590971
0.296802,+0000008,-0000019,-0000008,+0000046,-0000102,+0004148,-0000808,+0000514,-0002312,15:05:38.590971
0.297127,-0000004,-0000028,-0000005,+0000074,-0000066,+0004152,-0000808,+0000514,-0002312,15:05:38.590971
0.297284,-0000004,-0000028,-0000005,+0000074,-0000066,+0004152,-0000808,+0000514,-0002312,15:05:38.590971
0.297625,+0000026,-0000029,+0000006,+0000074,-0000101,+0004149,-0000802,+0000532,-0002328,15:05:38.590971
0.297957,+0000010,-0000032,+0000005,+0000074,-0000069,+0004137,-0000802,+0000532,-0002328,15:05:38.590971
0.298285,+0000003,-0000011,-0000005,+0000085,-0000079,+0004147,-0000802,+0000532,-0002328,15:05:38.590971
0.298621,+0000033,-0000015,-0000006,+0000063,-0000073,+0004142,-0000804,+0000494,-0002340,15:05:38.590971
0.298951,-0000008,-0000018,-0000013,+0000066,-0000092,+0004159,-0000804,+0000494,-0002340,15:05:38.590971
0.299304,+0000009,-0000005,+0000000,+0000050,-0000103,+0004156,-0000804,+0000494,-0002340,15:05:38.590971
0.299621,+0000016,-0000037,-0000004,+0000068,-0000069,+0004155,-0000804,+0000522,-0002333,15:05:38.590971
0.299951,+0000005,-0000024,-0000005,+0000049,-0000088,+0004142,-0000804,+0000522,-0002333,15:05:38.590971
0.300283,+0000024,-0000029,-0000013,+0000070,-0000090,+0004171,-0000804,+0000522,-0002333,15:05:38.590971
0.300685,+0000003,-0000021,-0000022,+0000060,-0000096,+0004154,-0000798,+0000500,-0002353,15:05:38.590971
0.300965,+0000003,-0000009,+0000008,+0000067,-0000092,+0004150,-0000798,+0000500,-0002353,15:05:38.590971
0.301285,+0000008,-0000021,-0000015,+0000058,-0000060,+0004147,-0000798,+0000500,-0002353,15:05:38.590971
0.301622,+0000022,-0000026,-0000002,+0000066,-0000085,+0004166,-0000816,+0000504,-0002348,15:05:38.590971
0.301949,+0000010,-0000018,-0000013,+0000072,-0000097,+0004176,-0000816,+0000504,-0002348,15:05:38.590971
0.302282,+0000000,-0000015,-0000005,+0000059,-0000085,+0004158,-0000816,+0000504,-0002348,15:05:38.591955
0.302619,+0000022,-0000043,-0000007,+0000063,-0000074,+0004170,-0000816,+0000516,-0002335,15:05:38.592955
0.302947,+0000020,-0000016,-0000018,+0000084,-0000078,+0004144,-0000816,+0000516,-0002335,15:05:38.592955
0.303280,+0000005,-0000003,+0000003,+0000044,-0000082,+0004141,-0000816,+0000516,-0002335,15:05:38.592955
0.303617,+0000020,-0000032,-0000013,+0000055,-0000094,+0004152,-0000816,+0000506,-0002345,15:05:38.592955
0.303947,+0000006,-0000035,-0000003,+0000053,-0000067,+0004154,-0000816,+0000506,-0002345,15:05:38.592955
0.304279,+0000028,-0000019,-0000005,+0000051,-0000089,+0004170,-0000816,+0000506,-0002345,15:05:38.592955
0.304617,+0000019,-0000034,-0000021,+0000066,-0000082,+0004142,-0000832,+0000496,-0002330,15:05:38.592955
0.304949,+0000005,-0000004,+0000003,+0000060,-0000104,+0004168,-0000832,+0000496,-0002330,15:05:38.592955
0.305278,+0000008,-0000034,-0000019,+0000085,-0000080,+0004146,-0000832,+0000496,-0002330,15:05:38.592955
0.305612,+0000022,-0000039,-0000008,+0000063,-0000074,+0004156,-0000812,+0000510,-0002346,15:05:38.592955
0.305944,+0000016,-0000042,-0000008,+0000059,-0000074,+0004146,-0000812,+0000510,-0002346,15:05:38.592955
0.306277,+0000014,-0000030,-0000011,+0000073,-0000099,+0004152,-0000812,+0000510,-0002346,15:05:38.592955
0.306612,+0000011,-0000026,-0000008,+0000052,-0000093,+0004153,-0000814,+0000506,-0002329,15:05:38.592955
0.306943,+0000002,-0000018,+0000000,+0000077,-0000103,+0004143,-0000814,+0000506,-0002329,15:05:38.592955
0.307276,+0000027,-0000028,-0000029,+0000056,-0000082,+0004161,-0000814,+0000506,-0002329,15:05:38.592955
0.307613,+0000002,-0000021,+0000011,+0000073,-0000097,+0004154,-0000804,+0000516,-0002357,15:05:38.592955
0.307942,+0000035,-0000053,-0000014,+0000077,-0000089,+0004152,-0000804,+0000516,-0002357,15:05:38.592955
0.308275,+0000025,-0000023,+0000007,+0000045,-0000081,+0004164,-0000804,+0000516,-0002357,15:05:38.592955
0.308612,+0000010,+0000000,-0000011,+0000064,-0000074,+0004139,-0000820,+0000508,-0002329,15:05:38.592955
0.308941,+0000013,-0000029,-0000014,+0000058,-0000093,+0004154,-0000820,+0000508,-0002329,15:05:38.592955
0.309274,+0000022,-0000018,+0000003,+0000060,-0000091,+0004151,-0000820,+0000508,-0002329,15:05:38.592955
0.309611,+0000020,-0000034,-0000018,+0000043,-0000094,+0004140,-0000812,+0000502,-0002353,15:05:38.592955
0.309940,+0000022,-0000021,-0000019,+0000068,-0000080,+0004136,-0000812,+0000502,-0002353,15:05:38.592955
0.310273,+0000002,-0000016,+0000001,+0000064,-0000093,+0004134,-0000812,+0000502,-0002353,15:05:38.592955
0.310619,+0000002,-0000015,-0000011,+0000079,-0000103,+0004158,-0000806,+0000518,-0002357,15:05:38.592955
0.310939,+0000024,-0000034,-0000016,+0000077,-0000085,+0004149,-0000806,+0000518,-0002357,15:05:38.592955
0.311272,-0000008,-0000024,-0000004,+0000059,-0000079,+0004151,-0000806,+0000518,-0002357,15:05:38.592955
0.311618,+0000024,-0000027,+0000004,+0000053,-0000097,+0004150,-0000818,+0000504,-0002324,15:05:38.592955
0.311938,+0000014,-0000021,-0000018,+0000071,-0000084,+0004145,-0000818,+0000504,-0002324,15:05:38.592955
0.312271,+0000009,-0000021,-0000013,+0000047,-0000073,+0004127,-0000818,+0000504,-0002324,15:05:38.592955
0.312617,+0000024,-0000020,-0000008,+0000067,-0000099,+0004151,-0000814,+0000512,-0002339,15:05:38.593956
0.312937,-0000001,-0000003,+0000004,+0000059,-0000103,+0004167,-0000814,+0000512,-0002339,15:05:38.593956
0.313270,+0000033,-0000037,+0000003,+0000057,-0000093,+0004163,-0000814,+0000512,-0002339,15:05:38.593956
0.313616,+0000020,-0000034,-0000004,+0000071,-0000080,+0004190,-0000808,+0000520,-0002331,15:05:38.593956
0.313936,+0000014,-0000018,-0000013,+0000076,-0000110,+0004175,-0000808,+0000520,-0002331,15:05:38.593956
0.314269,+0000027,-0000016,-0000010,+0000072,-0000091,+0004141,-0000808,+0000520,-0002331,15:05:38.593956
0.314614,-0000003,-0000013,-0000013,+0000069,-0000078,+0004160,-0000812,+0000488,-0002352,15:05:38.593956
0.314935,+0000008,-0000010,+0000008,+0000051,-0000081,+0004158,-0000812,+0000488,-0002352,15:05:38.593956
0.315268,+0000013,-0000029,+0000000,+0000069,-0000090,+0004165,-0000812,+0000488,-0002352,15:05:38.593956
0.315601,+0000025,-0000034,-0000006,+0000077,-0000083,+0004157,-0000828,+0000506,-0002321,15:05:38.593956
0.315934,+0000020,-0000037,-0000011,+0000064,-0000084,+0004171,-0000828,+0000506,-0002321,15:05:38.593956
0.316267,+0000002,-0000023,-0000013,+0000074,-0000075,+0004149,-0000828,+0000506,-0002321,15:05:38.593956
0.316600,+0000014,-0000005,-0000007,+0000057,-0000079,+0004156,-0000814,+0000502,-0002337,15:05:38.593956
0.316933,+0000013,-0000022,-0000002,+0000062,-0000084,+0004139,-0000814,+0000502,-0002337,15:05:38.593956
0.317266,+0000007,-0000026,-0000011,+0000061,-0000100,+0004151,-0000814,+0000502,-0002337,15:05:38.593956
0.317599,+0000032,-0000038,-0000010,+0000074,-0000104,+0004149,-0000794,+0000520,-0002319,15:05:38.593956
0.317932,+0000013,-0000022,-0000019,+0000058,-0000100,+0004144,-0000794,+0000520,-0002319,15:05:38.593956
0.318265,+0000013,-0000034,-0000007,+0000059,-0000086,+0004151,-0000794,+0000520,-0002319,15:05:38.593956
0.318598,+0000003,+0000003,+0000003,+0000067,-0000089,+0004136,-0000810,+0000520,-0002333,15:05:38.593956
0.318931,+0000024,-0000015,-0000004,+0000070,-0000095,+0004170,-0000810,+0000520,-0002333,15:05:38.593956
0.319264,+0000013,-0000037,-0000011,+0000072,-0000092,+0004155,-0000810,+0000520,-0002333,15:05:38.593956
0.319597,+0000021,-0000032,-0000002,+0000060,-0000097,+0004164,-0000816,+0000510,-0002333,15:05:38.593956
0.319930,+0000006,-0000032,-0000018,+0000064,-0000078,+0004135,-0000816,+0000510,-0002333,15:05:38.593956
0.320263,-0000003,-0000023,-0000014,+0000076,-0000110,+0004152,-0000816,+0000510,-0002333,15:05:38.593956
0.320596,+0000019,-0000015,-0000005,+0000072,-0000102,+0004133,-0000806,+0000490,-0002321,15:05:38.593956
0.320929,+0000013,-0000029,-0000014,+0000079,-0000089,+0004138,-0000806,+0000490,-0002321,15:05:38.593956
0.321262,+0000017,-0000020,+0000001,+0000070,-0000084,+0004140,-0000806,+0000490,-0002321,15:05:38.593956
0.321595,+0000030,-0000056,-0000013,+0000068,-0000098,+0004167,-0000814,+0000518,-0002320,15:05:38.593956
0.321928,+0000013,-0000024,-0000004,+0000062,-0000117,+0004146,-0000814,+0000518,-0002320,15:05:38.593956
0.322261,+0000008,-0000002,-0000016,+0000068,-0000108,+0004142,-0000814,+0000518,-0002320,15:05:38.593956
0.322594,+0000008,-0000019,+0000000,+0000067,-0000082,+0004138,-0000816,+0000528,-0002306,15:05:38.593956
0.322927,+0000003,-0000018,-0000014,+0000066,-0000082,+0004146,-0000816,+0000528,-0002306,15:05:38.593956
0.323260,+0000014,-0000024,-0000001,+0000057,-0000074,+0004160,-0000816,+0000528,-0002306,15:05:38.593956
0.323593,+0000017,-0000013,-0000010,+0000083,-0000077,+0004168,-0000798,+0000502,-0002316,15:05:38.593956
0.323926,+0000013,-0000016,-0000010,+0000087,-0000096,+0004142,-0000798,+0000502,-0002316,15:05:38.593956
0.324259,+0000011,-0000025,-0000013,+0000061,-0000114,+0004162,-0000798,+0000502,-0002316,15:05:38.593956
0.324592,-0000001,-0000005,+0000001,+0000070,-0000107,+0004155,-0000788,+0000532,-0002335,15:05:38.593956
0.324925,+0000008,-0000018,-0000008,+0000087,-0000089,+0004150,-0000788,+0000532,-0002335,15:05:38.593956
0.325258,+0000019,-0000028,+0000000,+0000074,-0000090,+0004163,-0000788,+0000532,-0002335,15:05:38.593956
0.325591,+0000022,-0000039,-0000015,+0000079,-0000095,+0004150,-0000812,+0000524,-0002307,15:05:38.593956
0.325924,+0000008,-0000027,-0000011,+0000078,-0000104,+0004146,-0000812,+0000524,-0002307,15:05:38.593956
0.326257,+0000011,-0000013,+0000001,+0000073,-0000083,+0004152,-0000812,+0000524,-0002307,15:05:38.593956
0.326590,+0000005,-0000026,-0000016,+0000059,-0000087,+0004139,-0000800,+0000516,-0002339,15:05:38.593956
0.326923,+0000003,-0000010,-0000013,+0000081,-0000088,+0004143,-0000800,+0000516,-0002339,15:05:38.593956
0.327256,+0000018,-0000018,-0000005,+0000065,-0000080,+0004134,-0000800,+0000516,-0002339,15:05:38.593956
0.327589,+0000025,-0000038,-0000003,+0000060,-0000081,+0004146,-0000782,+0000526,-0002338,15:05:38.593956
0.327922,+0000020,-0000024,-0000011,+0000076,-0000058,+0004164,-0000782,+0000526,-0002338,15:05:38.593956
0.328255,-0000002,-0000005,-0000007,+0000090,-0000106,+0004169,-0000782,+0000526,-0002338,15:05:38.593956
0.328588,+0000022,-0000021,-0000005,+0000064,-0000087,+0004143,-0000808,+0000520,-0002325,15:05:38.593956
0.328921,+0000025,-0000018,-0000002,+0000087,-0000093,+0004154,-0000808,+0000520,-0002325,15:05:38.593956
0.329254,+0000000,-0000048,-0000010,+0000072,-0000092,+0004155,-0000808,+0000520,-0002325,15:05:38.593956
0.329587,+0000033,-0000039,-0000010,+0000062,-0000088,+0004136,-0000798,+0000500,-0002324,15:05:38.593956
0.329920,+0000019,-0000011,-0000003,+0000067,-0000088,+0004167,-0000798,+0000500,-0002324,15:05:38.593956
0.330253,+0000005,-0000016,-0000012,+0000064,-0000097,+0004140,-0000798,+0000500,-0002324,15:05:38.593956
0.330586,+0000005,-0000015,-0000005,+0000069,-0000079,+0004151,-0000804,+0000502,-0002340,15:05:38.593956
0.330919,+0000019,-0000029,-0000020,+0000061,-0000086,+0004176,-0000804,+0000502,-0002340,15:05:38.593956
0.331252,+0000018,-0000021,+0000001,+0000070,-0000088,+0004152,-0000804,+0000502,-0002340,15:05:38.593956
0.331585,+0000029,-0000032,-0000008,+0000057,-0000066,+0004165,-0000794,+0000498,-0002340,15:05:38.593956
0.331918,+0000010,-0000034,-0000016,+0000076,-0000093,+0004166,-0000794,+0000498,-0002340,15:05:38.593956
0.332251,-0000004,+0000000,-0000005,+0000068,-0000076,+0004164,-0000794,+0000498,-0002340,15:05:38.593956
0.332584,+0000018,-0000010,-0000008,+0000072,-0000090,+0004169,-0000804,+0000490,-0002344,15:05:38.593956
0.332917,-0000002,-0000029,+0000002,+0000066,-0000088,+0004150,-0000804,+0000490,-0002344,15:05:38.593956
0.333250,+0000036,-0000046,-0000018,+0000046,-0000081,+0004142,-0000804,+0000490,-0002344,15:05:38.593956
0.333583,+0000018,-0000029,-0000007,+0000066,-0000062,+0004150,-0000808,+0000520,-0002339,15:05:38.593956
0.333916,-0000003,-0000008,-0000001,+0000073,-0000089,+0004156,-0000808,+0000520,-0002339,15:05:38.593956
0.334249,+0000030,-0000024,-0000018,+0000061,-0000103,+0004164,-0000808,+0000520,-0002339,15:05:38.593956
0.334582,+0000003,-0000016,-0000005,+0000054,-0000093,+0004151,-0000820,+0000516,-0002332,15:05:38.593956
0.334915,+0000025,-0000026,-0000005,+0000070,-0000074,+0004172,-0000820,+0000516,-0002332,15:05:38.593956
0.335248,+0000014,-0000050,-0000019,+0000068,-0000096,+0004145,-0000820,+0000516,-0002332,15:05:38.593956
0.335581,+0000025,-0000024,-0000013,+0000066,-0000102,+0004142,-0000816,+0000510,-0002332,15:05:38.593956
0.335914,-0000006,-0000020,-0000003,+0000059,-0000091,+0004155,-0000816,+0000510,-0002332,15:05:38.593956
0.336247,+0000023,-0000008,-0000003,+0000075,-0000095,+0004135,-0000816,+0000510,-0002332,15:05:38.593956
0.336580,+0000009,-0000042,-0000019,+0000070,-0000082,+0004150,-0000808,+0000516,-0002334,15:05:38.593956
0.336913,+0000011,-0000028,+0000011,+0000050,-0000090,+0004135,-0000808,+0000516,-0002334,15:05:38.593956
0.337246,+0000018,-0000024,-0000005,+0000071,-0000072,+0004144,-0000808,+0000516,-0002334,15:05:38.593956
0.337579,+0000006,-0000018,-0000019,+0000080,-0000089,+0004139,-0000796,+0000520,-0002337,15:05:38.593956
0.337912,+0000013,-0000008,+0000006,+0000076,-0000086,+0004151,-0000796,+0000520,-0002337,15:05:38.593956
0.338245,+0000008,-0000013,-0000013,+0000074,-0000085,+0004154,-0000796,+0000520,-0002337,15:05:38.593956
0.338578,+0000003,-0000021,+0000001,+0000074,-0000078,+0004141,-0000810,+0000508,-0002336,15:05:38.593956
0.338911,+0000032,-0000028,-0000005,+0000072,-0000087,+0004157,-0000810,+0000508,-0002336,15:05:38.593956
0.339244,+0000016,-0000023,-0000005,+0000056,-0000085,+0004138,-0000810,+0000508,-0002336,15:05:38.593956
0.339577,+0000018,-0000032,-0000014,+0000075,-0000094,+0004145,-0000806,+0000518,-0002323,15:05:38.593956
0.339910,-0000006,-0000018,-0000007,+0000076,-0000103,+0004152,-0000806,+0000518,-0002323,15:05:38.593956
0.340243,-0000005,-0000010,-0000003,+0000060,-0000089,+0004133,-0000806,+0000518,-0002323,15:05:38.593956
0.340576,+0000022,-0000015,-0000007,+0000079,-0000090,+0004165,-0000828,+0000516,-0002331,15:05:38.593956
0.340909,+0000022,-0000037,-0000015,+0000089,-0000095,+0004129,-0000828,+0000516,-0002331,15:05:38.593956
0.341242,+0000006,-0000026,-0000005,+0000064,-0000086,+0004146,-0000828,+0000516,-0002331,15:05:38.593956
0.341575,+0000014,-0000024,-0000014,+0000063,-0000102,+0004134,-0000800,+0000516,-0002329,15:05:38.593956
0.341908,+0000014,-0000029,-0000018,+0000076,-0000084,+0004148,-0000800,+0000516,-0002329,15:05:38.593956
0.342241,+0000003,+0000001,+0000004,+0000060,-0000096,+0004151,-0000800,+0000516,-0002329,15:05:38.593956
0.342574,+0000006,-0000018,-0000004,+0000062,-0000088,+0004152,-0000812,+0000758,-0002355,15:05:38.593956
0.342907,+0000027,-0000042,-0000019,+0000050,-0000085,+0004173,-0000812,+0000758,-0002355,15:05:38.593956
0.343240,+0000016,-0000027,-0000006,+0000056,-0000078,+0004170,-0000812,+0000758,-0002355,15:05:38.593956
0.343573,+0000014,-0000029,-0000011,+0000073,-0000103,+0004154,-0000820,+0000508,-0002352,15:05:38.593956
0.343906,+0000000,-0000018,-0000004,+0000060,-0000093,+0004156,-0000820,+0000508,-0002352,15:05:38.593956
0.344239,+0000003,-0000014,-0000012,+0000073,-0000090,+0004146,-0000820,+0000508,-0002352,15:05:38.593956
0.344572,+0000032,-0000030,-0000008,+0000074,-0000108,+0004151,-0000824,+0000524,-0002314,15:05:38.593956
0.344905,+0000005,-0000018,-0000005,+0000069,-0000093,+0004152,-0000824,+0000524,-0002314,15:05:38.614965
0.345241,+0000031,-0000043,-0000021,+0000063,-0000091,+0004144,-0000824,+0000524,-0002314,15:05:38.614965
0.345577,+0000022,-0000028,+0000003,+0000076,-0000069,+0004162,-0000820,+0000508,-0002356,15:05:38.614965
0.346285,+0000016,-0000032,-0000024,+0000080,-0000093,+0004152,-0000820,+0000508,-0002356,15:05:38.614965
0.346676,+0000008,-0000013,+0000003,+0000072,-0000076,+0004146,-0000820,+0000508,-0002356,15:05:38.614965
0.346950,+0000006,-0000018,-0000018,+0000062,-0000076,+0004148,-0000808,+0000514,-0002324,15:05:38.614965
0.347240,+0000008,-0000016,+0000003,+0000056,-0000082,+0004154,-0000808,+0000514,-0002324,15:05:38.618969
0.347569,+0000000,-0000022,+0000001,+0000057,-0000082,+0004157,-0000808,+0000514,-0002324,15:05:38.618969
0.347907,+0000018,-0000027,-0000008,+0000063,-0000067,+0004150,-0000804,+0000490,-0002321,15:05:38.618969
0.348236,+0000027,-0000021,-0000013,+0000068,-0000096,+0004148,-0000804,+0000490,-0002321,15:05:38.618969
0.348568,+0000008,-0000040,-0000006,+0000080,-0000084,+0004162,-0000804,+0000490,-0002321,15:05:38.618969
0.348901,+0000025,-0000040,-0000011,+0000069,-0000103,+0004156,-0000816,+0000530,-0002351,15:05:38.618969
0.349234,+0000017,-0000018,-0000013,+0000077,-0000091,+0004152,-0000816,+0000530,-0002351,15:05:38.618969
0.349567,+0000003,-0000002,-0000008,+0000070,-0000090,+0004169,-0000816,+0000530,-0002351,15:05:38.618969
0.349900,+0000017,-0000028,-0000010,+0000057,-0000099,+0004186,-0000796,+0000512,-0002360,15:05:38.618969
0.350233,+0000017,-0000018,-0000015,+0000069,-0000103,+0004173,-0000796,+0000512,-0002360,15:05:38.618969
0.350566,+0000028,-0000035,-0000008,+0000074,-0000088,+0004168,-0000796,+0000512,-0002360,15:05:38.618969
0.350899,+0000014,-0000024,-0000015,+0000094,-0000082,+0004149,-0000796,+0000512,-0002336,15:05:38.618969
0.351232,+0000016,-0000021,-0000010,+0000078,-0000093,+0004142,-0000796,+0000512,-0002336,15:05:38.618969
0.351565,+0000014,-0000016,-0000008,+0000069,-0000085,+0004161,-0000796,+0000512,-0002336,15:05:38.618969
0.351898,+0000000,-0000002,+0000006,+0000061,-0000089,+0004142,-0000812,+0000518,-0002361,15:05:38.618969
0.352231,+0000013,-0000042,-0000013,+0000056,-0000103,+0004165,-0000812,+0000518,-0002361,15:05:38.618969
0.352564,+0000035,-0000021,-0000006,+0000066,-0000100,+0004157,-0000812,+0000518,-0002361,15:05:38.618969
0.352897,+0000021,-0000029,-0000010,+0000070,-0000076,+0004152,-0000818,+0000508,-0002322,15:05:38.618969
0.353230,+0000007,-0000032,-0000011,+0000063,-0000073,+0004147,-0000818,+0000508,-0002322,15:05:38.618969
0.353579,+0000016,-0000016,-0000004,+0000072,-0000101,+0004161,-0000818,+0000508,-0002322,15:05:38.618969
0.353896,-0000006,-0000012,+0000006,+0000078,-0000103,+0004134,-0000800,+0000498,-0002337,15:05:38.618969
0.354229,+0000028,-0000042,-0000003,+0000064,-0000081,+0004167,-0000800,+0000498,-0002337,15:05:38.618969
0.354562,+0000010,-0000030,-0000006,+0000061,-0000060,+0004137,-0000800,+0000498,-0002337,15:05:38.618969
0.354895,+0000027,-0000032,-0000008,+0000071,-0000098,+0004134,-0000800,+0000498,-0002336,15:05:38.618969
0.355228,+0000022,-0000034,-0000018,+0000075,-0000081,+0004140,-0000800,+0000498,-0002336,15:05:38.618969
0.355561,+0000016,-0000016,-0000005,+0000077,-0000095,+0004159,-0000800,+0000498,-0002336,15:05:38.618969
0.355894,+0000001,-0000008,-0000011,+0000060,-0000095,+0004146,-0000800,+0000504,-0002334,15:05:38.618969
0.356227,+0000016,-0000023,-0000003,+0000082,-0000099,+0004141,-0000800,+0000504,-0002334,15:05:38.618969
0.356560,+0000027,-0000023,-0000008,+0000050,-0000098,+0004140,-0000800,+0000504,-0002334,15:05:38.618969
0.356893,+0000011,-0000032,-0000002,+0000043,-0000085,+0004141,-0000800,+0000508,-0002344,15:05:38.618969
0.357226,+0000014,-0000034,-0000013,+0000064,-0000086,+0004146,-0000800,+0000508,-0002344,15:05:38.618969
0.357559,+0000008,-0000016,-0000005,+0000070,-0000107,+0004128,-0000800,+0000508,-0002344,15:05:38.618969
0.357892,+0000003,-0000015,+0000001,+0000077,-0000103,+0004141,-0000796,+0000514,-0002344,15:05:38.618969
0.358225,+0000006,-0000019,+0000000,+0000083,-0000105,+0004158,-0000796,+0000514,-0002344,15:05:38.618969
0.358593,+0000028,-0000053,-0000003,+0000084,-0000083,+0004146,-0000796,+0000514,-0002344,15:05:38.618969
0.358891,+0000016,-0000036,-0000016,+0000087,-0000082,+0004142,-0000812,+0000506,-0002320,15:05:38.618969
0.359224,+0000030,-0000045,-0000002,+0000054,-0000095,+0004153,-0000812,+0000506,-0002320,15:05:38.618969
0.359557,+0000011,-0000007,-0000018,+0000068,-0000107,+0004149,-0000812,+0000506,-0002320,15:05:38.618969
0.359890,+0000005,-0000013,+0000001,+0000063,-0000096,+0004150,-0000806,+0000504,-0002319,15:05:38.618969
0.360223,+0000024,-0000032,-0000007,+0000065,-0000081,+0004152,-0000806,+0000504,-0002319,15:05:38.618969
0.360556,+0000016,-0000035,-0000006,+0000046,-0000092,+0004133,-0000806,+0000504,-0002319,15:05:38.618969
0.360889,+0000033,-0000037,-0000019,+0000048,-0000097,+0004157,-0000820,+0000520,-0002311,15:05:38.618969
0.361222,+0000000,-0000015,-0000019,+0000072,-0000114,+0004159,-0000820,+0000520,-0002311,15:05:38.618969
0.361555,+0000016,-0000028,-0000008,+0000056,-0000078,+0004177,-0000820,+0000520,-0002311,15:05:38.618969
0.361888,+0000000,-0000028,-0000004,+0000060,-0000094,+0004164,-0000812,+0000520,-0002331,15:05:38.618969
0.362221,+0000030,-0000021,-0000013,+0000070,-0000082,+0004149,-0000812,+0000520,-0002331,15:05:38.618969
0.362554,+0000019,-0000047,-0000010,+0000063,-0000085,+0004144,-0000812,+0000520,-0002331,15:05:38.618969
0.362887,+0000020,-0000037,+0000000,+0000069,-0000064,+0004155,-0000820,+0000512,-0002343,15:05:38.618969
0.363220,-0000001,-0000007,-0000002,+0000082,-0000099,+0004139,-0000820,+0000512,-0002343,15:05:38.618969
0.363553,+0000000,-0000026,-0000024,+0000056,-0000086,+0004147,-0000820,+0000512,-0002343,15:05:38.622966
0.363886,+0000019,-0000013,+0000003,+0000058,-0000092,+0004159,-0000792,+0000510,-0002321,15:05:38.624967
0.364219,+0000025,-0000045,-0000016,+0000050,-0000100,+0004139,-0000792,+0000510,-0002321,15:05:38.624967
0.364552,+0000030,-0000010,+0000006,+0000055,-0000082,+0004155,-0000792,+0000510,-0002321,15:05:38.624967
0.364885,+0000025,-0000024,-0000020,+0000051,-0000087,+0004162,-0000814,+0000518,-0002334,15:05:38.624967
0.365218,+0000005,-0000024,-0000008,+0000054,-0000079,+0004168,-0000814,+0000518,-0002334,15:05:38.624967
0.365551,+0000005,-0000002,-0000005,+0000059,-0000089,+0004157,-0000814,+0000518,-0002334,15:05:38.624967
0.365884,+0000021,-0000023,-0000010,+0000072,-0000088,+0004154,-0000814,+0000534,-0002324,15:05:38.624967
0.366217,+0000014,-0000028,-0000018,+0000055,-0000079,+0004172,-0000814,+0000534,-0002324,15:05:38.624967
0.366550,+0000019,-0000023,-0000007,+0000051,-0000077,+0004161,-0000814,+0000534,-0002324,15:05:38.624967
0.366883,+0000014,-0000023,-0000013,+0000077,-0000097,+0004143,-0000816,+0000496,-0002328,15:05:38.624967
0.367216,+0000017,-0000013,-0000010,+0000071,-0000090,+0004162,-0000816,+0000496,-0002328,15:05:38.624967
0.367549,-0000001,-0000010,-0000006,+0000059,-0000093,+0004173,-0000816,+0000496,-0002328,15:05:38.624967
0.367882,+0000002,-0000023,-0000010,+0000056,-0000090,+0004149,-0000828,+0000514,-0002333,15:05:38.624967
0.368215,+0000019,-0000044,-0000011,+0000073,-0000081,+0004179,-0000828,+0000514,-0002333,15:05:38.624967
0.368548,+0000019,-0000024,+0000001,+0000060,-0000096,+0004154,-0000828,+0000514,-0002333,15:05:38.624967
0.368881,+0000019,-0000027,-0000016,+0000056,-0000068,+0004164,-0000810,+0000516,-0002336,15:05:38.624967
0.369214,-0000001,-0000011,-0000005,+0000064,-0000081,+0004132,-0000810,+0000516,-0002336,15:05:38.624967
0.369547,+0000008,-0000005,-0000011,+0000053,-0000094,+0004162,-0000810,+0000516,-0002336,15:05:38.624967
0.369880,+0000016,-0000024,-0000006,+0000063,-0000075,+0004152,-0000814,+0000520,-0002332,15:05:38.624967
0.370213,+0000009,-0000031,-0000004,+0000060,-0000077,+0004146,-0000814,+0000520,-0002332,15:05:38.624967
0.370546,+0000021,-0000026,-0000023,+0000063,-0000083,+0004158,-0000814,+0000520,-0002332,15:05:38.624967
0.370879,+0000019,-0000029,-0000005,+0000059,-0000077,+0004152,-0000814,+0000510,-0002339,15:05:38.624967
0.371212,+0000014,-0000012,-0000010,+0000077,-0000085,+0004154,-0000814,+0000510,-0002339,15:05:38.624967
0.371549,-0000006,-0000015,-0000014,+0000078,-0000082,+0004128,-0000814,+0000510,-0002339,15:05:38.624967
0.371878,+0000006,-0000024,+0000000,+0000059,-0000119,+0004145,-0000820,+0000508,-0002328,15:05:38.624967
0.372211,+0000021,-0000029,-0000011,+0000069,-0000082,+0004135,-0000820,+0000508,-0002328,15:05:38.624967
0.372545,+0000019,-0000046,-0000007,+0000060,-0000090,+0004140,-0000820,+0000508,-0002328,15:05:38.624967
0.372877,+0000021,-0000034,-0000016,+0000063,-0000063,+0004140,-0000826,+0000516,-0002327,15:05:38.624967
0.373215,+0000005,-0000016,-0000008,+0000053,-0000078,+0004136,-0000826,+0000516,-0002327,15:05:38.624967
0.373548,+0000006,-0000018,-0000003,+0000070,-0000111,+0004163,-0000826,+0000516,-0002327,15:05:38.624967
0.373877,+0000019,-0000023,-0000011,+0000089,-0000096,+0004158,-0000804,+0000510,-0002320,15:05:38.624967
0.374211,+0000007,-0000034,+0000000,+0000064,-0000077,+0004150,-0000804,+0000510,-0002320,15:05:38.624967
0.374543,+0000027,-0000019,-0000018,+0000069,-0000092,+0004141,-0000804,+0000510,-0002320,15:05:38.624967
0.374876,+0000005,-0000018,+0000003,+0000049,-0000085,+0004151,-0000802,+0000518,-0002325,15:05:38.624967
0.375210,+0000008,-0000011,-0000015,+0000059,-0000086,+0004171,-0000802,+0000518,-0002325,15:05:38.624967
0.375543,+0000010,-0000023,-0000007,+0000066,-0000110,+0004141,-0000802,+0000518,-0002325,15:05:38.624967
0.375874,+0000030,-0000037,-0000013,+0000067,-0000108,+0004157,-0000816,+0000496,-0002312,15:05:38.624967
0.376208,+0000022,-0000029,-0000010,+0000038,-0000112,+0004141,-0000816,+0000496,-0002312,15:05:38.624967
0.376540,+0000019,-0000013,-0000010,+0000064,-0000073,+0004131,-0000816,+0000496,-0002312,15:05:38.624967
