===BEGIN_METADATA===
"This CSV contains gyroscope, accelerometer, and magnetometer data synced with the test named below."
Test Name: 2026-07-07_150418_01,yyyy-mm-dd_hhmmss_{probe#/nano_id}
Calibrations: (not implemented yet)
===END_METADATA===
===BEGIN_DATA===
Time (sec),Gyro X,Gyro Y,Gyro Z,Accel X,Accel Y,Accel Z,Mag X,Mag Y,Mag Z,Processed_Time
0.000313,+0000007,-0000010,-0000010,+0000048,-0000097,+0004151,-0000666,+0000092,-0002344,15:04:23.783931
0.000645,+0000002,-0000008,+0000003,+0000020,-0000090,+0004163,-0000726,+0000414,-0002303,15:04:23.783931
0.000978,+0000020,-0000034,-0000018,+0000026,-0000074,+0004152,-0000726,+0000414,-0002303,15:04:23.783931
0.001311,+0000030,-0000035,-0000019,+0000052,-0000089,+0004149,-0000726,+0000414,-0002303,15:04:23.783931
0.001644,-0000001,-0000002,-0000008,+0000040,-0000092,+0004155,-0000738,+0000416,-0002314,15:04:23.783931
0.001977,+0000008,-0000011,-0000007,+0000040,-0000085,+0004162,-0000738,+0000416,-0002314,15:04:23.783931
0.002310,+0000020,-0000034,-0000008,+0000065,-0000094,+0004150,-0000738,+0000416,-0002314,15:04:23.783931
0.002643,+0000022,-0000029,-0000007,+0000054,-0000100,+0004166,-0000730,+0000428,-0002320,15:04:23.783931
0.002976,+0000021,-0000034,-0000013,+0000012,-0000123,+0004153,-0000730,+0000428,-0002320,15:04:23.783931
0.003309,+0000008,-0000021,-0000004,+0000043,-0000112,+0004147,-0000730,+0000428,-0002320,15:04:23.783931
0.003642,+0000011,-0000015,-0000010,+0000047,-0000096,+0004146,-0000724,+0000428,-0002339,15:04:23.783931
0.003975,+0000011,-0000015,-0000011,+0000050,-0000093,+0004142,-0000724,+0000428,-0002339,15:04:23.783931
0.004308,+0000006,-0000015,-0000010,+0000057,-0000108,+0004154,-0000724,+0000428,-0002339,15:04:23.783931
0.004641,+0000025,-0000029,-0000007,+0000037,-0000085,+0004140,-0000738,+0000424,-0002335,15:04:23.783931
0.004974,+0000028,-0000043,-0000018,+0000048,-0000084,+0004150,-0000738,+0000424,-0002335,15:04:23.783931
0.005307,+0000023,-0000042,-0000016,+0000082,-0000066,+0004170,-0000738,+0000424,-0002335,15:04:23.783931
0.005640,+0000011,-0000011,-0000013,+0000043,-0000072,+0004145,-0000732,+0000436,-0002333,15:04:23.783931
0.005973,+0000002,-0000012,+0000001,+0000036,-0000085,+0004162,-0000732,+0000436,-0002333,15:04:23.783931
0.006306,+0000005,-0000021,+0000000,+0000057,-0000077,+0004145,-0000732,+0000436,-0002333,15:04:23.783931
0.006639,+0000029,-0000040,-0000007,+0000064,-0000094,+0004167,-0000742,+0000418,-0002315,15:04:23.783931
0.006972,+0000021,-0000024,+0000004,+0000041,-0000090,+0004166,-0000742,+0000418,-0002315,15:04:23.783931
0.007305,+0000029,-0000031,-0000029,+0000059,-0000099,+0004159,-0000742,+0000418,-0002315,15:04:23.784941
0.007638,-0000003,-0000023,+0000000,+0000065,-0000084,+0004158,-0000728,+0000428,-0002332,15:04:23.784941
0.007971,+0000007,-0000011,-0000004,+0000038,-0000069,+0004149,-0000728,+0000428,-0002332,15:04:23.784941
0.008304,+0000008,-0000020,+0000003,+0000027,-0000072,+0004160,-0000728,+0000428,-0002332,15:04:23.784941
0.008637,+0000021,-0000028,-0000015,+0000029,-0000089,+0004152,-0000738,+0000420,-0002318,15:04:23.784941
0.008970,+0000027,-0000043,-0000005,+0000036,-0000064,+0004158,-0000738,+0000420,-0002318,15:04:23.784941
0.009303,+0000014,-0000024,-0000011,+0000036,-0000101,+0004158,-0000738,+0000420,-0002318,15:04:23.784941
0.009636,+0000017,-0000018,-0000010,+0000048,-0000075,+0004167,-0000724,+0000424,-0002315,15:04:23.837609
0.009972,+0000016,-0000016,-0000003,+0000042,-0000082,+0004154,-0000724,+0000424,-0002315,15:04:23.837609
0.010305,+0000017,-0000035,-0000002,+0000048,-0000102,+0004147,-0000724,+0000424,-0002315,15:04:23.837609
0.010994,+0000020,-0000010,-0000011,+0000049,-0000107,+0004155,-0000750,+0000434,-0002352,15:04:23.837609
0.011307,+0000003,-0000010,-0000011,+0000042,-0000088,+0004173,-0000750,+0000434,-0002352,15:04:23.837609
0.011636,+0000003,-0000007,-0000002,+0000043,-0000096,+0004156,-0000750,+0000434,-0002352,15:04:23.837609
0.011970,+0000008,-0000013,-0000008,+0000039,-0000084,+0004144,-0000726,+0000410,-0002327,15:04:23.837609
0.012301,+0000019,-0000039,-0000008,+0000030,-0000092,+0004136,-0000726,+0000410,-0002327,15:04:23.837609
0.012633,+0000033,-0000027,+0000000,+0000040,-0000082,+0004159,-0000726,+0000410,-0002327,15:04:23.837609
0.012968,+0000020,-0000047,-0000024,+0000050,-0000097,+0004162,-0000722,+0000424,-0002331,15:04:23.838606
0.013299,+0000008,-0000016,-0000023,+0000047,-0000093,+0004139,-0000722,+0000424,-0002331,15:04:23.838606
0.013634,+0000005,-0000005,+0000006,+0000034,-0000097,+0004151,-0000722,+0000424,-0002331,15:04:23.838606
0.013965,+0000012,-0000031,-0000022,+0000019,-0000087,+0004152,-0000730,+0000430,-0002348,15:04:23.838606
0.014298,+0000009,-0000027,+0000003,+0000022,-0000088,+0004156,-0000730,+0000430,-0002348,15:04:23.838606
0.014632,+0000025,-0000038,-0000010,+0000044,-0000101,+0004149,-0000730,+0000430,-0002348,15:04:23.838606
0.014965,+0000014,-0000015,-0000016,+0000027,-0000072,+0004160,-0000748,+0000440,-0002353,15:04:23.838606
0.015298,+0000003,-0000016,-0000005,+0000029,-0000115,+0004166,-0000748,+0000440,-0002353,15:04:23.838606
0.015630,+0000017,-0000016,-0000013,+0000031,-0000096,+0004143,-0000748,+0000440,-0002353,15:04:23.838606
0.015963,+0000016,-0000026,+0000008,+0000029,-0000086,+0004155,-0000732,+0000424,-0002334,15:04:23.838606
0.016296,+0000023,-0000032,-0000014,+0000033,-0000103,+0004134,-0000732,+0000424,-0002334,15:04:23.838606
0.016629,+0000024,-0000005,-0000001,+0000034,-0000106,+0004158,-0000732,+0000424,-0002334,15:04:23.838606
0.016962,+0000011,-0000025,-0000019,+0000059,-0000105,+0004147,-0000724,+0000424,-0002315,15:04:23.838606
0.017295,+0000005,-0000016,-0000005,+0000045,-0000076,+0004162,-0000724,+0000424,-0002315,15:04:23.838606
0.017629,+0000005,-0000010,-0000003,+0000038,-0000088,+0004159,-0000724,+0000424,-0002315,15:04:23.838606
0.017961,+0000019,-0000029,-0000010,+0000029,-0000083,+0004136,-0000734,+0000430,-0002329,15:04:23.838606
0.018294,+0000010,-0000040,-0000007,+0000040,-0000091,+0004148,-0000734,+0000430,-0002329,15:04:23.838606
0.018627,+0000036,-0000031,-0000007,+0000047,-0000086,+0004125,-0000734,+0000430,-0002329,15:04:23.838606
0.018960,+0000007,-0000034,-0000018,+0000039,-0000063,+0004147,-0000746,+0000424,-0002339,15:04:23.838606
0.019293,+0000008,-0000007,-0000005,+0000037,-0000090,+0004168,-0000746,+0000424,-0002339,15:04:23.838606
0.019626,+0000000,-0000016,-0000013,+0000047,-0000080,+0004156,-0000746,+0000424,-0002339,15:04:23.838606
0.019959,+0000024,-0000015,+0000009,+0000040,-0000102,+0004162,-0000736,+0000448,-0002337,15:04:23.838606
0.020292,+0000023,-0000043,-0000019,+0000049,-0000082,+0004166,-0000736,+0000448,-0002337,15:04:23.838606
0.020625,+0000022,-0000036,-0000007,+0000041,-0000090,+0004163,-0000736,+0000448,-0002337,15:04:23.838606
0.020958,+0000000,-0000013,-0000005,+0000047,-0000096,+0004172,-0000724,+0000434,-0002340,15:04:23.838606
0.021291,+0000005,-0000026,-0000022,+0000061,-0000096,+0004143,-0000724,+0000434,-0002340,15:04:23.838606
0.021624,+0000005,-0000002,+0000006,+0000039,-0000090,+0004146,-0000724,+0000434,-0002340,15:04:23.838606
0.021957,+0000008,-0000024,-0000002,+0000039,-0000086,+0004160,-0000742,+0000436,-0002336,15:04:23.838606
0.022290,+0000028,-0000032,+0000000,+0000024,-0000101,+0004149,-0000742,+0000436,-0002336,15:04:23.838606
0.022623,+0000011,-0000029,-0000018,+0000031,-0000088,+0004162,-0000742,+0000436,-0002336,15:04:23.838606
0.022956,+0000019,-0000029,-0000011,+0000032,-0000085,+0004144,-0000732,+0000428,-0002314,15:04:23.838606
0.023289,+0000000,-0000003,-0000001,+0000037,-0000097,+0004142,-0000732,+0000428,-0002314,15:04:23.838606
0.023622,+0000005,-0000004,+0000001,+0000052,-0000089,+0004155,-0000732,+0000428,-0002314,15:04:23.838606
0.023955,+0000019,-0000034,-0000005,+0000043,-0000087,+0004142,-0000734,+0000434,-0002329,15:04:23.838606
0.024288,+0000024,-0000034,-0000003,+0000035,-0000071,+0004160,-0000734,+0000434,-0002329,15:04:23.838606
0.024621,+0000017,-0000029,-0000017,+0000028,-0000090,+0004148,-0000734,+0000434,-0002329,15:04:23.838606
0.024954,+0000006,-0000021,+0000006,+0000025,-0000084,+0004146,-0000720,+0000412,-0002319,15:04:23.838606
0.025287,-0000001,-0000002,+0000009,+0000043,-0000084,+0004171,-0000720,+0000412,-0002319,15:04:23.838606
0.025620,+0000011,-0000010,-0000023,+0000041,-0000085,+0004145,-0000720,+0000412,-0002319,15:04:23.838606
0.025953,+0000011,-0000037,+0000001,+0000045,-0000077,+0004157,-0000726,+0000424,-0002309,15:04:23.838606
0.026286,+0000027,-0000027,-0000015,+0000046,-0000101,+0004144,-0000726,+0000424,-0002309,15:04:23.838606
0.026619,+0000030,-0000048,-0000010,+0000036,-0000120,+0004138,-0000726,+0000424,-0002309,15:04:23.838606
0.026952,+0000012,-0000019,-0000003,+0000038,-0000090,+0004171,-0000712,+0000422,-0002309,15:04:23.838606
0.027285,+0000003,-0000026,-0000013,+0000047,-0000079,+0004158,-0000712,+0000422,-0002309,15:04:23.838606
0.027618,+0000010,-0000004,-0000008,+0000034,-0000084,+0004135,-0000712,+0000422,-0002309,15:04:23.839608
0.027951,+0000024,-0000031,-0000003,+0000037,-0000086,+0004151,-0000734,+0000432,-0002318,15:04:23.839608
0.028284,+0000018,-0000050,-0000021,+0000020,-0000086,+0004149,-0000734,+0000432,-0002318,15:04:23.839608
0.028617,+0000009,-0000013,-0000010,+0000045,-0000086,+0004159,-0000734,+0000432,-0002318,15:04:23.839608
0.028950,-0000004,-0000010,-0000010,+0000045,-0000102,+0004160,-0000730,+0000428,-0002314,15:04:23.839608
0.029283,+0000011,-0000019,-0000005,+0000052,-0000119,+0004173,-0000730,+0000428,-0002314,15:04:23.839608
0.029616,+0000005,-0000016,+0000001,+0000072,-0000092,+0004142,-0000730,+0000428,-0002314,15:04:23.839608
0.029949,+0000027,-0000032,-0000011,+0000030,-0000083,+0004163,-0000742,+0000426,-0002346,15:04:23.839608
0.030282,+0000019,-0000010,+0000006,+0000042,-0000103,+0004150,-0000742,+0000426,-0002346,15:04:23.839608
0.030615,+0000014,-0000019,-0000022,+0000045,-0000085,+0004140,-0000742,+0000426,-0002346,15:04:23.839608
0.030948,+0000000,-0000003,+0000003,+0000027,-0000076,+0004159,-0000734,+0000424,-0002314,15:04:23.839608
0.031281,+0000011,-0000016,-0000013,+0000033,-0000088,+0004168,-0000734,+0000424,-0002314,15:04:23.839608
0.031614,+0000011,-0000015,-0000008,+0000013,-0000103,+0004138,-0000734,+0000424,-0002314,15:04:23.839608
0.031947,+0000028,-0000026,-0000016,+0000029,-0000109,+0004162,-0000722,+0000430,-0002335,15:04:23.839608
0.032280,+0000016,-0000026,-0000005,+0000051,-0000082,+0004158,-0000722,+0000430,-0002335,15:04:23.839608
0.032613,+0000025,-0000036,-0000021,+0000046,-0000098,+0004143,-0000722,+0000430,-0002335,15:04:23.839608
0.032946,-0000006,-0000008,+0000005,+0000033,-0000081,+0004159,-0000732,+0000432,-0002340,15:04:23.839608
0.033279,+0000000,-0000010,-0000010,+0000035,-0000072,+0004159,-0000732,+0000432,-0002340,15:04:23.839608
0.033612,+0000010,-0000014,-0000005,+0000059,-0000082,+0004159,-0000732,+0000432,-0002340,15:04:23.839608
0.033945,+0000028,-0000037,-0000013,+0000048,-0000073,+0004166,-0000730,+0000438,-0002315,15:04:23.839608
0.034278,+0000003,-0000016,-0000002,+0000018,-0000087,+0004172,-0000730,+0000438,-0002315,15:04:23.839608
0.034611,+0000022,-0000032,-0000015,+0000040,-0000080,+0004172,-0000730,+0000438,-0002315,15:04:23.839608
0.034944,+0000009,-0000015,-0000011,+0000029,-0000102,+0004142,-0000744,+0000436,-0002304,15:04:23.839608
0.035277,+0000008,-0000015,-0000013,+0000037,-0000102,+0004171,-0000744,+0000436,-0002304,15:04:23.839608
0.035610,-0000006,-0000021,+0000005,+0000021,-0000075,+0004167,-0000744,+0000436,-0002304,15:04:23.839608
0.035943,+0000030,-0000046,-0000024,+0000043,-0000070,+0004151,-0000736,+0000452,-0002310,15:04:23.839608
0.036276,+0000010,-0000026,+0000005,+0000063,-0000095,+0004148,-0000736,+0000452,-0002310,15:04:23.839608
0.036609,+0000013,-0000024,-0000013,+0000048,-0000081,+0004155,-0000736,+0000452,-0002310,15:04:23.839608
0.036942,+0000010,-0000019,-0000021,+0000045,-0000103,+0004168,-0000742,+0000454,-0002309,15:04:23.839608
0.037275,-0000005,-0000011,-0000006,+0000040,-0000077,+0004154,-0000742,+0000454,-0002309,15:04:23.839608
0.037608,+0000016,-0000026,-0000010,+0000043,-0000075,+0004146,-0000742,+0000454,-0002309,15:04:23.839608
0.037941,+0000005,-0000021,+0000001,+0000042,-0000094,+0004164,-0000724,+0000430,-0002311,15:04:23.839608
0.038274,+0000032,-0000048,-0000014,+0000047,-0000071,+0004162,-0000724,+0000430,-0002311,15:04:23.839608
0.038607,+0000015,-0000024,-0000008,+0000042,-0000076,+0004142,-0000724,+0000430,-0002311,15:04:23.839608
0.038940,-0000009,+0000001,-0000005,+0000041,-0000080,+0004135,-0000724,+0000412,-0002313,15:04:23.839608
0.039273,+0000006,-0000010,-0000004,+0000031,-0000074,+0004150,-0000724,+0000412,-0002313,15:04:23.839608
0.039606,+0000023,-0000043,-0000021,+0000033,-0000096,+0004128,-0000724,+0000412,-0002313,15:04:23.839608
0.039939,+0000019,-0000032,-0000010,+0000056,-0000086,+0004143,-0000732,+0000422,-0002328,15:04:23.839608
0.040272,+0000025,-0000034,-0000013,+0000045,-0000083,+0004154,-0000732,+0000422,-0002328,15:04:23.839608
0.040605,+0000014,-0000018,+0000001,+0000048,-0000062,+0004163,-0000732,+0000422,-0002328,15:04:23.839608
0.040938,+0000006,-0000013,-0000011,+0000046,-0000087,+0004150,-0000722,+0000426,-0002339,15:04:23.839608
0.041284,+0000011,-0000024,-0000011,+0000029,-0000097,+0004166,-0000722,+0000426,-0002339,15:04:23.839608
0.041604,+0000016,-0000031,+0000001,+0000057,-0000105,+0004159,-0000722,+0000426,-0002339,15:04:23.839608
0.041937,+0000016,-0000032,-0000019,+0000034,-0000078,+0004148,-0000722,+0000434,-0002304,15:04:23.839608
0.042283,+0000013,-0000024,-0000011,+0000032,-0000093,+0004139,-0000722,+0000434,-0002304,15:04:23.839608
0.042604,+0000011,-0000008,-0000010,+0000026,-0000111,+0004158,-0000722,+0000434,-0002304,15:04:23.868624
0.042936,+0000013,-0000021,-0000002,+0000036,-0000088,+0004148,-0000734,+0000428,-0002313,15:04:23.868624
0.043276,+0000005,-0000013,-0000003,+0000035,-0000092,+0004158,-0000734,+0000428,-0002313,15:04:23.868624
0.043808,-0000001,-0000010,-0000008,+0000042,-0000089,+0004144,-0000734,+0000428,-0002313,15:04:23.868624
0.044018,+0000013,-0000007,-0000004,+0000029,-0000093,+0004147,-0000736,+0000442,-0002288,15:04:23.868624
0.044382,+0000011,-0000016,-0000013,+0000033,-0000085,+0004152,-0000736,+0000442,-0002288,15:04:23.868624
0.044603,+0000017,-0000022,+0000003,+0000045,-0000091,+0004168,-0000736,+0000442,-0002288,15:04:23.868624
0.044942,+0000009,-0000013,-0000012,+0000046,-0000108,+0004163,-0000736,+0000428,-0002303,15:04:23.868624
0.045267,+0000008,-0000020,-0000004,+0000058,-0000106,+0004161,-0000736,+0000428,-0002303,15:04:23.868624
0.045600,+0000014,-0000026,-0000013,+0000046,-0000066,+0004175,-0000736,+0000428,-0002303,15:04:23.868624
0.045933,+0000016,-0000034,-0000013,+0000043,-0000080,+0004146,-0000730,+0000428,-0002326,15:04:23.868624
0.046279,+0000017,-0000031,-0000003,+0000043,-0000094,+0004165,-0000730,+0000428,-0002326,15:04:23.868624
0.046599,+0000005,-0000013,-0000018,+0000034,-0000100,+0004153,-0000730,+0000428,-0002326,15:04:23.868624
0.046932,+0000000,-0000031,+0000003,+0000052,-0000094,+0004146,-0000726,+0000460,-0002291,15:04:23.868624
0.047268,+0000019,-0000019,-0000005,+0000048,-0000093,+0004155,-0000726,+0000460,-0002291,15:04:23.868624
0.047598,+0000023,-0000029,-0000007,+0000035,-0000085,+0004130,-0000726,+0000460,-0002291,15:04:23.868624
0.047931,+0000009,-0000031,-0000015,+0000036,-0000080,+0004193,-0000724,+0000444,-0002293,15:04:23.868624
0.048264,+0000002,-0000026,-0000003,+0000026,-0000079,+0004169,-0000724,+0000444,-0002293,15:04:23.869623
0.048597,+0000025,-0000019,-0000013,+0000045,-0000100,+0004174,-0000724,+0000444,-0002293,15:04:23.869623
0.048930,+0000011,-0000013,-0000005,+0000035,-0000090,+0004156,-0000734,+0000452,-0002336,15:04:23.869623
0.049263,+0000014,-0000015,+0000003,+0000048,-0000093,+0004152,-0000734,+0000452,-0002336,15:04:23.869623
0.049596,+0000022,-0000045,-0000010,+0000046,-0000088,+0004154,-0000734,+0000452,-0002336,15:04:23.869623
0.049929,+0000022,-0000024,-0000016,+0000046,-0000101,+0004148,-0000736,+0000430,-0002312,15:04:23.869623
0.050262,+0000017,-0000024,-0000015,+0000030,-0000092,+0004169,-0000736,+0000430,-0002312,15:04:23.869623
0.050595,+0000003,-0000013,-0000003,+0000068,-0000104,+0004154,-0000736,+0000430,-0002312,15:04:23.869623
0.050928,-0000008,-0000003,-0000005,+0000040,-0000104,+0004145,-0000730,+0000428,-0002319,15:04:23.869623
0.051261,+0000021,-0000037,-0000005,+0000056,-0000082,+0004154,-0000730,+0000428,-0002319,15:04:23.869623
0.051594,+0000008,-0000023,-0000012,+0000032,-0000081,+0004150,-0000730,+0000428,-0002319,15:04:23.869623
0.051928,+0000035,-0000032,-0000010,+0000037,-0000096,+0004135,-0000746,+0000418,-0002334,15:04:23.869623
0.052273,+0000011,-0000023,-0000019,+0000031,-0000089,+0004140,-0000746,+0000418,-0002334,15:04:23.869623
0.052593,+0000003,-0000021,-0000010,+0000039,-0000084,+0004143,-0000746,+0000418,-0002334,15:04:23.869623
0.052926,+0000011,-0000021,-0000002,+0000030,-0000077,+0004140,-0000736,+0000412,-0002328,15:04:23.869623
0.053259,+0000016,-0000031,-0000013,+0000022,-0000083,+0004148,-0000736,+0000412,-0002328,15:04:23.869623
0.053592,+0000027,-0000029,-0000011,+0000022,-0000091,+0004158,-0000736,+0000412,-0002328,15:04:23.869623
0.053925,+0000033,-0000038,-0000008,+0000025,-0000083,+0004168,-0000726,+0000406,-0002314,15:04:23.869623
0.054258,+0000016,-0000013,-0000011,+0000040,-0000085,+0004146,-0000726,+0000406,-0002314,15:04:23.869623
0.054591,+0000007,-0000013,-0000008,+0000044,-0000075,+0004135,-0000726,+0000406,-0002314,15:04:23.869623
0.054924,+0000011,-0000015,+0000006,+0000052,-0000105,+0004166,-0000740,+0000414,-0002328,15:04:23.869623
0.055257,+0000011,-0000045,-0000008,+0000044,-0000094,+0004163,-0000740,+0000414,-0002328,15:04:23.869623
0.055590,+0000025,-0000021,-0000018,+0000046,-0000067,+0004166,-0000740,+0000414,-0002328,15:04:23.869623
0.055923,+0000013,-0000018,-0000018,+0000052,-0000083,+0004146,-0000734,+0000428,-0002329,15:04:23.869623
0.056256,-0000005,-0000018,-0000005,+0000037,-0000085,+0004125,-0000734,+0000428,-0002329,15:04:23.869623
0.056589,+0000014,-0000020,-0000007,+0000033,-0000074,+0004161,-0000734,+0000428,-0002329,15:04:23.869623
0.056922,+0000002,-0000026,-0000015,+0000026,-0000090,+0004148,-0000716,+0000430,-0002311,15:04:23.869623
0.057255,+0000017,-0000034,+0000011,+0000053,-0000098,+0004166,-0000716,+0000430,-0002311,15:04:23.869623
0.057588,+0000030,-0000019,-0000013,+0000057,-0000072,+0004163,-0000716,+0000430,-0002311,15:04:23.869623
0.057921,-0000003,-0000021,-0000010,+0000038,-0000118,+0004161,-0000714,+0000426,-0002322,15:04:23.870637
0.058254,+0000016,-0000020,-0000012,+0000037,-0000093,+0004159,-0000714,+0000426,-0002322,15:04:23.870637
0.058587,+0000011,-0000015,-0000004,+0000038,-0000095,+0004140,-0000714,+0000426,-0002322,15:04:23.870637
0.058920,+0000013,-0000020,-0000002,+0000049,-0000073,+0004157,-0000736,+0000430,-0002315,15:04:23.870637
0.059253,+0000022,-0000031,-0000012,+0000033,-0000067,+0004147,-0000736,+0000430,-0002315,15:04:23.870637
0.059586,+0000025,-0000034,-0000015,+0000030,-0000096,+0004126,-0000736,+0000430,-0002315,15:04:23.870637
0.059919,+0000016,-0000029,-0000003,+0000037,-0000091,+0004149,-0000730,+0000440,-0002303,15:04:23.870637
0.060252,+0000010,-0000016,-0000006,+0000032,-0000108,+0004153,-0000730,+0000440,-0002303,15:04:23.870637
0.060585,-0000001,-0000007,-0000016,+0000044,-0000089,+0004168,-0000730,+0000440,-0002303,15:04:23.870637
0.060918,+0000021,-0000020,-0000003,+0000047,-0000092,+0004155,-0000728,+0000412,-0002306,15:04:23.870637
0.061251,+0000024,-0000042,-0000013,+0000042,-0000093,+0004166,-0000728,+0000412,-0002306,15:04:23.870637
0.061584,+0000020,-0000023,-0000002,+0000040,-0000086,+0004160,-0000728,+0000412,-0002306,15:04:23.870637
0.061917,+0000013,-0000026,-0000014,+0000048,-0000094,+0004140,-0000722,+0000426,-0002309,15:04:23.870637
0.062250,+0000014,-0000029,-0000012,+0000033,-0000094,+0004156,-0000722,+0000426,-0002309,15:04:23.870637
0.062583,-0000005,+0000001,-0000005,+0000036,-0000082,+0004138,-0000722,+0000426,-0002309,15:04:23.870637
0.062933,-0000009,-0000007,+0000001,+0000034,-0000100,+0004158,-0000728,+0000430,-0002303,15:04:23.870637
0.063262,+0000005,-0000018,-0000018,+0000038,-0000102,+0004156,-0000728,+0000430,-0002303,15:04:23.872618
0.063582,+0000019,-0000010,+0000004,+0000037,-0000076,+0004139,-0000728,+0000430,-0002303,15:04:23.872618
0.063919,+0000002,-0000016,-0000011,+0000034,-0000087,+0004155,-0000728,+0000448,-0002334,15:04:23.872618
0.064251,+0000025,-0000018,-0000008,+0000043,-0000087,+0004158,-0000728,+0000448,-0002334,15:04:23.872618
0.064581,+0000013,-0000034,-0000010,+0000037,-0000090,+0004163,-0000728,+0000448,-0002334,15:04:23.872618
0.064914,+0000025,-0000021,+0000001,+0000041,-0000088,+0004149,-0000730,+0000436,-0002316,15:04:23.872618
0.065255,+0000031,-0000043,-0000024,+0000041,-0000077,+0004139,-0000730,+0000436,-0002316,15:04:23.872618
0.065581,+0000006,-0000035,+0000001,+0000036,-0000088,+0004150,-0000730,+0000436,-0002316,15:04:23.872618
0.065915,+0000003,-0000015,-0000011,+0000031,-0000090,+0004147,-0000740,+0000430,-0002324,15:04:23.872618
0.066247,+0000003,-0000005,-0000010,+0000039,-0000124,+0004147,-0000740,+0000430,-0002324,15:04:23.872618
0.066580,+0000002,-0000016,+0000005,+0000041,-0000083,+0004147,-0000740,+0000430,-0002324,15:04:23.872618
0.067073,+0000013,-0000037,-0000007,+0000050,-0000099,+0004148,-0000736,+0000430,-0002323,15:04:23.872618
0.067317,+0000013,-0000037,-0000007,+0000049,-0000100,+0004172,-0000736,+0000430,-0002323,15:04:23.872618
0.067579,-0000003,-0000018,+0000000,+0000049,-0000093,+0004135,-0000736,+0000430,-0002323,15:04:23.872618
0.067911,+0000010,-0000031,-0000005,+0000050,-0000100,+0004142,-0000730,+0000448,-0002296,15:04:23.872618
0.068244,+0000021,-0000012,-0000003,+0000039,-0000098,+0004158,-0000730,+0000448,-0002296,15:04:23.872618
0.068578,+0000005,-0000024,-0000014,+0000050,-0000075,+0004156,-0000730,+0000448,-0002296,15:04:23.872618
0.068912,+0000012,-0000024,-0000002,+0000027,-0000082,+0004135,-0000728,+0000434,-0002313,15:04:23.872618
0.069243,+0000006,-0000018,-0000013,+0000032,-0000097,+0004156,-0000728,+0000434,-0002313,15:04:23.872618
0.069576,+0000013,-0000010,-0000005,+0000020,-0000079,+0004137,-0000728,+0000434,-0002313,15:04:23.872618
0.069909,+0000011,-0000014,-0000019,+0000032,-0000070,+0004153,-0000730,+0000416,-0002309,15:04:23.872618
0.070242,+0000007,-0000018,+0000011,+0000017,-0000090,+0004142,-0000730,+0000416,-0002309,15:04:23.872618
0.070575,+0000014,-0000028,-0000014,+0000036,-0000086,+0004151,-0000730,+0000416,-0002309,15:04:23.872618
0.070908,+0000027,-0000024,+0000003,+0000039,-0000086,+0004160,-0000730,+0000430,-0002325,15:04:23.874620
0.071241,+0000025,-0000021,-0000019,+0000032,-0000097,+0004172,-0000730,+0000430,-0002325,15:04:23.874620
0.071574,+0000003,-0000015,+0000006,+0000032,-0000076,+0004144,-0000730,+0000430,-0002325,15:04:23.874620
0.071907,+0000017,-0000021,-0000022,+0000041,-0000070,+0004144,-0000714,+0000422,-0002331,15:04:23.874620
0.072240,-0000004,-0000003,+0000000,+0000035,-0000076,+0004150,-0000714,+0000422,-0002331,15:04:23.874620
0.072573,+0000013,-0000030,-0000007,+0000037,-0000103,+0004162,-0000714,+0000422,-0002331,15:04:23.874620
0.072906,+0000032,-0000027,-0000007,+0000045,-0000103,+0004143,-0000720,+0000446,-0002337,15:04:23.874620
0.073239,+0000022,-0000032,-0000016,+0000041,-0000073,+0004150,-0000720,+0000446,-0002337,15:04:23.874620
0.073572,-0000001,-0000027,-0000016,+0000049,-0000078,+0004139,-0000720,+0000446,-0002337,15:04:23.874620
0.073905,+0000029,-0000016,-0000013,+0000041,-0000074,+0004149,-0000730,+0000424,-0002349,15:04:23.874620
0.074238,+0000003,-0000016,+0000000,+0000036,-0000086,+0004167,-0000730,+0000424,-0002349,15:04:23.874620
0.074571,+0000016,-0000016,-0000010,+0000032,-0000102,+0004142,-0000730,+0000424,-0002349,15:04:23.874620
0.074904,+0000024,-0000026,-0000013,+0000022,-0000078,+0004144,-0000722,+0000442,-0002316,15:04:23.874620
0.075237,+0000030,-0000032,-0000003,+0000036,-0000111,+0004136,-0000722,+0000442,-0002316,15:04:23.874620
0.075570,+0000006,-0000019,-0000019,+0000041,-0000075,+0004126,-0000722,+0000442,-0002316,15:04:23.874620
0.075903,+0000013,-0000024,-0000015,+0000031,-0000103,+0004160,-0000736,+0000432,-0002334,15:04:23.874620
0.076236,+0000000,-0000011,-0000005,+0000029,-0000079,+0004154,-0000736,+0000432,-0002334,15:04:23.874620
0.076569,-0000002,-0000016,-0000008,+0000051,-0000078,+0004158,-0000736,+0000432,-0002334,15:04:23.874620
0.076902,+0000028,-0000029,-0000014,+0000039,-0000086,+0004158,-0000714,+0000440,-0002338,15:04:23.874620
0.077235,+0000012,-0000039,-0000005,+0000053,-0000098,+0004143,-0000714,+0000440,-0002338,15:04:23.874620
0.077568,+0000008,-0000018,-0000010,+0000047,-0000083,+0004177,-0000714,+0000440,-0002338,15:04:23.874620
0.077901,+0000018,-0000023,-0000003,+0000019,-0000093,+0004134,-0000718,+0000436,-0002330,15:04:23.874620
0.078234,+0000013,-0000012,+0000004,+0000018,-0000089,+0004149,-0000718,+0000436,-0002330,15:04:23.874620
0.078567,+0000021,-0000031,-0000008,+0000052,-0000098,+0004159,-0000718,+0000436,-0002330,15:04:23.874620
0.078900,+0000017,-0000037,+0000003,+0000034,-0000085,+0004148,-0000732,+0000430,-0002322,15:04:23.874620
0.079233,+0000021,-0000034,-0000011,+0000038,-0000089,+0004139,-0000732,+0000430,-0002322,15:04:23.875621
0.079566,+0000016,-0000029,-0000011,+0000030,-0000080,+0004136,-0000732,+0000430,-0002322,15:04:23.876619
0.079899,-0000003,+0000000,+0000003,+0000051,-0000078,+0004137,-0000734,+0000432,-0002327,15:04:23.876619
0.080232,-0000009,-0000021,-0000008,+0000016,-0000077,+0004154,-0000734,+0000432,-0002327,15:04:23.876619
0.080565,+0000020,-0000024,-0000010,+0000042,-0000084,+0004165,-0000734,+0000432,-0002327,15:04:23.876619
0.080898,+0000014,-0000040,-0000012,+0000042,-0000098,+0004140,-0000724,+0000446,-0002332,15:04:23.876619
0.081231,+0000033,-0000026,-0000013,+0000029,-0000074,+0004159,-0000724,+0000446,-0002332,15:04:23.876619
0.081564,+0000009,-0000024,-0000008,+0000043,-0000088,+0004147,-0000724,+0000446,-0002332,15:04:23.876619
0.081897,+0000002,-0000003,-0000008,+0000051,-0000097,+0004147,-0000736,+0000426,-0002323,15:04:23.876619
0.082230,+0000013,-0000021,-0000013,+0000023,-0000073,+0004167,-0000736,+0000426,-0002323,15:04:23.876619
0.082563,+0000010,-0000029,+0000000,+0000035,-0000090,+0004158,-0000736,+0000426,-0002323,15:04:23.876619
0.082896,+0000032,-0000044,-0000005,+0000045,-0000085,+0004148,-0000736,+0000436,-0002326,15:04:23.876619
0.083229,+0000024,-0000019,-0000011,+0000026,-0000078,+0004141,-0000736,+0000436,-0002326,15:04:23.876619
0.083562,+0000009,-0000010,-0000002,+0000035,-0000108,+0004144,-0000736,+0000436,-0002326,15:04:23.876619
0.083895,+0000010,-0000018,-0000008,+0000031,-0000087,+0004149,-0000728,+0000426,-0002342,15:04:23.876619
0.084228,+0000013,-0000015,-0000005,+0000051,-0000080,+0004142,-0000728,+0000426,-0002342,15:04:23.876619
0.084561,+0000013,-0000037,-0000008,+0000026,-0000093,+0004135,-0000728,+0000426,-0002342,15:04:23.876619
0.084894,+0000012,-0000010,-0000013,+0000034,-0000089,+0004161,-0000722,+0000418,-0002321,15:04:23.877623
0.085227,+0000014,-0000024,-0000007,+0000056,-0000081,+0004144,-0000722,+0000418,-0002321,15:04:23.877623
0.085560,+0000000,-0000018,+0000000,+0000046,-0000076,+0004148,-0000722,+0000418,-0002321,15:04:23.877623
0.085893,+0000016,-0000008,-0000010,+0000049,-0000090,+0004154,-0000724,+0000426,-0002342,15:04:23.877623
0.086226,+0000011,-0000032,-0000003,+0000054,-0000084,+0004151,-0000724,+0000426,-0002342,15:04:23.877623
0.086559,+0000011,-0000019,-0000016,+0000036,-0000086,+0004153,-0000724,+0000426,-0002342,15:04:23.877623
0.086892,+0000021,-0000031,-0000007,+0000043,-0000093,+0004146,-0000726,+0000420,-0002330,15:04:23.877623
0.087225,+0000008,-0000029,-0000013,+0000048,-0000081,+0004179,-0000726,+0000420,-0002330,15:04:23.877623
0.087558,+0000000,-0000020,-0000014,+0000039,-0000079,+0004145,-0000726,+0000420,-0002330,15:04:23.877623
0.087891,+0000005,-0000008,-0000008,+0000052,-0000067,+0004161,-0000744,+0000428,-0002342,15:04:23.878620
0.088224,+0000018,-0000026,-0000003,+0000042,-0000097,+0004152,-0000744,+0000428,-0002342,15:04:23.878620
0.088557,+0000024,-0000032,-0000023,+0000045,-0000081,+0004152,-0000744,+0000428,-0002342,15:04:23.878620
0.088890,+0000021,-0000036,+0000004,+0000038,-0000089,+0004148,-0000730,+0000430,-0002355,15:04:23.878620
0.089223,+0000024,-0000039,-0000027,+0000045,-0000098,+0004143,-0000730,+0000430,-0002355,15:04:23.878620
0.089556,+0000005,-0000007,+0000006,+0000047,-0000094,+0004156,-0000730,+0000430,-0002355,15:04:23.878620
0.089889,+0000000,-0000021,-0000014,+0000030,-0000080,+0004163,-0000734,+0000416,-0002328,15:04:23.878620
0.090222,+0000006,-0000022,+0000000,+0000031,-0000091,+0004151,-0000734,+0000416,-0002328,15:04:23.878620
0.090555,+0000027,-0000024,-0000008,+0000054,-0000089,+0004161,-0000734,+0000416,-0002328,15:04:23.878620
0.090888,+0000013,-0000038,-0000007,+0000040,-0000081,+0004135,-0000738,+0000426,-0002307,15:04:23.878620
0.091221,+0000011,-0000027,-0000007,+0000043,-0000086,+0004150,-0000738,+0000426,-0002307,15:04:23.878620
0.091554,+0000014,-0000019,-0000016,+0000026,-0000060,+0004159,-0000738,+0000426,-0002307,15:04:23.878620
0.091887,+0000008,-0000010,+0000000,+0000033,-0000102,+0004146,-0000734,+0000426,-0002330,15:04:23.878620
0.092220,+0000006,-0000021,+0000003,+0000032,-0000099,+0004142,-0000734,+0000426,-0002330,15:04:23.878620
0.092553,+0000033,-0000045,-0000019,+0000046,-0000115,+0004151,-0000734,+0000426,-0002330,15:04:23.943066
0.092887,+0000003,-0000023,-0000007,+0000044,-0000101,+0004144,-0000734,+0000418,-0002304,15:04:23.943066
0.093222,+0000025,-0000023,-0000007,+0000044,-0000086,+0004148,-0000734,+0000418,-0002304,15:04:23.943066
0.093942,+0000006,-0000026,-0000005,+0000034,-0000113,+0004144,-0000734,+0000418,-0002304,15:04:23.943066
0.094495,-0000003,-0000013,+0000000,+0000041,-0000055,+0004158,-0000726,+0000420,-0002335,15:04:23.943066
0.094759,+0000010,-0000013,-0000010,+0000031,-0000073,+0004141,-0000726,+0000420,-0002335,15:04:23.943066
0.094994,-0000010,-0000010,+0000001,+0000024,-0000100,+0004158,-0000726,+0000420,-0002335,15:04:23.943066
0.095219,+0000028,-0000036,-0000024,+0000042,-0000095,+0004143,-0000738,+0000418,-0002321,15:04:23.943066
0.095557,+0000016,-0000025,+0000000,+0000036,-0000094,+0004164,-0000738,+0000418,-0002321,15:04:23.943066
0.095884,+0000012,-0000029,+0000000,+0000025,-0000086,+0004130,-0000738,+0000418,-0002321,15:04:23.943066
0.096216,+0000030,-0000040,-0000016,+0000048,-0000085,+0004152,-0000746,+0000428,-0002338,15:04:23.943066
0.096549,+0000028,-0000048,-0000005,+0000022,-0000092,+0004153,-0000746,+0000428,-0002338,15:04:23.943066
0.096884,+0000018,-0000009,-0000007,+0000052,-0000088,+0004139,-0000746,+0000428,-0002338,15:04:23.943066
0.097215,+0000003,-0000028,-0000008,+0000042,-0000093,+0004176,-0000732,+0000424,-0002334,15:04:23.943066
0.097799,+0000014,-0000018,-0000002,+0000025,-0000095,+0004148,-0000732,+0000424,-0002334,15:04:23.943066
0.097979,+0000008,+0000000,-0000012,+0000051,-0000074,+0004164,-0000732,+0000424,-0002334,15:04:23.943066
0.098217,+0000008,+0000000,-0000012,+0000051,-0000101,+0004162,-0000734,+0000422,-0002316,15:04:23.943066
0.098548,+0000007,-0000005,+0000001,+0000027,-0000099,+0004147,-0000734,+0000422,-0002316,15:04:23.943066
0.098882,+0000031,-0000020,-0000010,+0000046,-0000083,+0004149,-0000734,+0000422,-0002316,15:04:23.943066
0.099214,+0000003,-0000017,-0000006,+0000046,-0000082,+0004151,-0000734,+0000420,-0002330,15:04:23.943066
0.099546,+0000008,+0000000,-0000010,+0000045,-0000077,+0004167,-0000734,+0000420,-0002330,15:04:23.943066
0.099879,+0000014,-0000031,-0000008,+0000042,-0000075,+0004145,-0000734,+0000420,-0002330,15:04:23.943066
0.100213,+0000016,-0000026,-0000013,+0000037,-0000072,+0004158,-0000744,+0000436,-0002331,15:04:23.943066
0.100546,+0000021,-0000023,-0000014,+0000020,-0000095,+0004147,-0000744,+0000436,-0002331,15:04:23.943066
0.100879,+0000013,-0000032,-0000004,+0000051,-0000077,+0004142,-0000744,+0000436,-0002331,15:04:23.943066
0.101212,+0000011,-0000011,-0000015,+0000050,-0000099,+0004158,-0000746,+0000418,-0002324,15:04:23.943066
0.101545,-0000006,-0000005,+0000008,+0000049,-0000091,+0004162,-0000746,+0000418,-0002324,15:04:23.943066
0.101879,+0000010,-0000023,+0000001,+0000030,-0000080,+0004143,-0000746,+0000418,-0002324,15:04:23.943066
0.102210,+0000005,-0000016,-0000008,+0000040,-0000094,+0004154,-0000744,+0000424,-0002341,15:04:23.943066
0.102543,+0000021,-0000024,-0000013,+0000029,-0000089,+0004144,-0000744,+0000424,-0002341,15:04:23.943066
0.102876,+0000010,-0000026,-0000010,+0000041,-0000081,+0004146,-0000744,+0000424,-0002341,15:04:23.943066
0.103209,+0000019,-0000015,-0000005,+0000048,-0000097,+0004158,-0000722,+0000426,-0002344,15:04:23.943066
0.103542,+0000000,-0000012,-0000008,+0000038,-0000091,+0004150,-0000722,+0000426,-0002344,15:04:23.943066
0.103875,+0000013,-0000013,-0000002,+0000037,-0000079,+0004160,-0000722,+0000426,-0002344,15:04:23.943066
0.104208,+0000020,-0000035,-0000014,+0000047,-0000105,+0004159,-0000722,+0000432,-0002322,15:04:23.943066
0.104541,+0000014,-0000031,+0000001,+0000031,-0000081,+0004147,-0000722,+0000432,-0002322,15:04:23.943066
0.104874,+0000022,-0000029,-0000016,+0000036,-0000109,+0004152,-0000722,+0000432,-0002322,15:04:23.943066
0.105207,+0000005,-0000012,-0000001,+0000045,-0000092,+0004139,-0000754,+0000434,-0002299,15:04:23.943066
0.105540,-0000015,-0000010,+0000003,+0000039,-0000099,+0004139,-0000754,+0000434,-0002299,15:04:23.943066
0.105873,+0000024,-0000018,-0000010,+0000014,-0000087,+0004141,-0000754,+0000434,-0002299,15:04:23.943066
0.106206,+0000027,-0000047,-0000008,+0000047,-0000088,+0004163,-0000726,+0000420,-0002324,15:04:23.943066
0.106539,+0000014,-0000028,-0000007,+0000048,-0000083,+0004180,-0000726,+0000420,-0002324,15:04:23.943066
0.106872,+0000019,-0000015,-0000013,+0000050,-0000109,+0004150,-0000726,+0000420,-0002324,15:04:23.943066
0.107205,+0000005,-0000001,+0000008,+0000027,-0000106,+0004151,-0000728,+0000418,-0002326,15:04:23.943066
0.107538,-0000001,-0000015,-0000016,+0000029,-0000080,+0004159,-0000728,+0000418,-0002326,15:04:23.943066
0.107871,+0000021,-0000023,+0000005,+0000033,-0000093,+0004140,-0000728,+0000418,-0002326,15:04:23.943066
0.108204,+0000014,-0000037,-0000019,+0000051,-0000101,+0004156,-0000710,+0000432,-0002314,15:04:23.943066
0.108537,+0000020,-0000029,-0000013,+0000039,-0000088,+0004140,-0000710,+0000432,-0002314,15:04:23.943066
0.108870,+0000005,-0000019,-0000004,+0000044,-0000094,+0004144,-0000710,+0000432,-0002314,15:04:23.943066
0.109203,+0000014,-0000026,-0000013,+0000028,-0000087,+0004146,-0000744,+0000432,-0002337,15:04:23.943066
0.109536,+0000013,-0000012,+0000003,+0000026,-0000084,+0004147,-0000744,+0000432,-0002337,15:04:23.943066
0.109869,+0000019,-0000042,-0000006,+0000036,-0000090,+0004147,-0000744,+0000432,-0002337,15:04:23.943066
0.110202,+0000017,-0000032,-0000021,+0000042,-0000079,+0004138,-0000720,+0000432,-0002330,15:04:23.943066
0.110535,+0000017,-0000011,-0000013,+0000034,-0000075,+0004133,-0000720,+0000432,-0002330,15:04:23.943066
0.110868,+0000011,-0000019,-0000015,+0000037,-0000076,+0004151,-0000720,+0000432,-0002330,15:04:23.943066
0.111201,+0000002,-0000028,-0000008,+0000020,-0000084,+0004159,-0000728,+0000438,-0002323,15:04:23.943066
0.111534,+0000013,-0000021,-0000003,+0000020,-0000083,+0004136,-0000728,+0000438,-0002323,15:04:23.943066
0.111867,+0000011,-0000027,-0000005,+0000025,-0000121,+0004149,-0000728,+0000438,-0002323,15:04:23.943066
0.112200,+0000031,-0000028,-0000014,+0000033,-0000081,+0004153,-0000730,+0000432,-0002301,15:04:23.943066
0.112533,+0000016,-0000021,-0000003,+0000045,-0000068,+0004152,-0000730,+0000432,-0002301,15:04:23.943066
0.112866,+0000006,-0000016,-0000005,+0000043,-0000083,+0004150,-0000730,+0000432,-0002301,15:04:23.943066
0.113199,+0000006,-0000011,-0000013,+0000040,-0000083,+0004168,-0000720,+0000422,-0002321,15:04:23.943066
0.113532,+0000010,-0000010,-0000007,+0000038,-0000096,+0004152,-0000720,+0000422,-0002321,15:04:23.943066
0.113865,+0000030,-0000029,-0000013,+0000031,-0000098,+0004144,-0000720,+0000422,-0002321,15:04:23.943066
0.114198,+0000040,-0000032,-0000021,+0000043,-0000100,+0004147,-0000740,+0000434,-0002320,15:04:23.943066
0.114531,+0000001,-0000015,+0000007,+0000031,-0000080,+0004155,-0000740,+0000434,-0002320,15:04:23.943066
0.114864,+0000019,-0000038,-0000029,+0000033,-0000089,+0004147,-0000740,+0000434,-0002320,15:04:23.943066
0.115197,-0000016,+0000003,+0000011,+0000034,-0000076,+0004160,-0000724,+0000424,-0002325,15:04:23.943066
0.115530,+0000014,-0000026,-0000008,+0000026,-0000099,+0004134,-0000724,+0000424,-0002325,15:04:23.943066
0.115863,+0000022,-0000035,-0000011,+0000044,-0000096,+0004157,-0000724,+0000424,-0002325,15:04:23.943066
0.116196,+0000027,-0000029,-0000013,+0000051,-0000079,+0004159,-0000726,+0000412,-0002306,15:04:23.943066
0.116529,+0000005,-0000015,-0000014,+0000042,-0000086,+0004156,-0000726,+0000412,-0002306,15:04:23.943066
0.116862,+0000011,-0000016,-0000004,+0000036,-0000094,+0004158,-0000726,+0000412,-0002306,15:04:23.943066
0.117195,-0000006,-0000013,+0000000,+0000041,-0000073,+0004152,-0000714,+0000432,-0002345,15:04:23.943066
0.117528,+0000019,-0000019,-0000019,+0000059,-0000098,+0004170,-0000714,+0000432,-0002345,15:04:23.943066
0.117861,+0000022,-0000027,+0000001,+0000033,-0000076,+0004155,-0000714,+0000432,-0002345,15:04:23.943066
0.118194,+0000018,-0000037,-0000003,+0000042,-0000093,+0004157,-0000740,+0000408,-0002342,15:04:23.943066
0.118527,+0000014,-0000024,-0000010,+0000025,-0000086,+0004168,-0000740,+0000408,-0002342,15:04:23.943066
0.118860,+0000012,-0000023,-0000001,+0000036,-0000101,+0004161,-0000740,+0000408,-0002342,15:04:23.943066
0.119193,+0000010,-0000016,+0000001,+0000038,-0000072,+0004148,-0000738,+0000436,-0002336,15:04:23.943066
0.119526,+0000017,-0000013,-0000014,+0000050,-0000089,+0004164,-0000738,+0000436,-0002336,15:04:23.943066
0.119869,+0000021,-0000037,+0000001,+0000042,-0000086,+0004160,-0000738,+0000436,-0002336,15:04:23.943066
0.120192,+0000022,-0000021,-0000019,+0000040,-0000077,+0004147,-0000736,+0000424,-0002344,15:04:23.943066
0.120525,+0000013,-0000009,-0000011,+0000032,-0000075,+0004153,-0000736,+0000424,-0002344,15:04:23.943066
0.120858,+0000007,-0000002,-0000010,+0000040,-0000091,+0004141,-0000736,+0000424,-0002344,15:04:23.943066
0.121191,+0000005,-0000016,-0000011,+0000042,-0000094,+0004156,-0000742,+0000424,-0002322,15:04:23.943066
0.121524,+0000022,-0000034,-0000008,+0000048,-0000098,+0004151,-0000742,+0000424,-0002322,15:04:23.943066
0.121857,+0000007,-0000030,-0000012,+0000030,-0000104,+0004141,-0000742,+0000424,-0002322,15:04:23.943066
0.122190,+0000025,-0000032,-0000005,+0000042,-0000080,+0004154,-0000730,+0000420,-0002333,15:04:23.943066
0.122523,+0000008,-0000007,+0000008,+0000045,-0000095,+0004151,-0000730,+0000420,-0002333,15:04:23.943066
0.122856,+0000011,-0000019,-0000011,+0000029,-0000079,+0004132,-0000730,+0000420,-0002333,15:04:23.943066
0.123189,+0000013,-0000021,-0000008,+0000051,-0000078,+0004163,-0000722,+0000430,-0002344,15:04:23.943066
0.123522,-0000001,-0000016,-0000003,+0000030,-0000071,+0004166,-0000722,+0000430,-0002344,15:04:23.943066
0.123855,+0000036,-0000045,-0000023,+0000021,-0000087,+0004148,-0000722,+0000430,-0002344,15:04:23.943066
0.124188,+0000012,-0000026,-0000012,+0000041,-0000104,+0004165,-0000752,+0000426,-0002317,15:04:23.943066
0.124521,+0000003,+0000006,-0000013,+0000048,-0000099,+0004144,-0000752,+0000426,-0002317,15:04:23.943066
0.124854,+0000019,-0000015,+0000003,+0000032,-0000104,+0004162,-0000752,+0000426,-0002317,15:04:23.943066
0.125187,+0000007,-0000016,-0000015,+0000044,-0000085,+0004160,-0000724,+0000436,-0002327,15:04:23.943066
0.125520,+0000008,-0000035,-0000005,+0000043,-0000093,+0004130,-0000724,+0000436,-0002327,15:04:23.943066
0.125853,+0000022,-0000034,-0000014,+0000041,-0000080,+0004148,-0000724,+0000436,-0002327,15:04:23.943066
0.126186,+0000020,-0000026,-0000005,+0000059,-0000078,+0004167,-0000716,+0000412,-0002335,15:04:23.943066
0.126519,+0000006,-0000016,-0000011,+0000027,-0000105,+0004152,-0000716,+0000412,-0002335,15:04:23.943066
0.126852,+0000016,-0000016,-0000002,+0000031,-0000104,+0004173,-0000716,+0000412,-0002335,15:04:23.943066
0.127185,+0000014,-0000018,-0000010,+0000035,-0000090,+0004131,-0000724,+0000428,-0002346,15:04:23.943066
0.127518,+0000005,-0000024,-0000004,+0000052,-0000082,+0004130,-0000724,+0000428,-0002346,15:04:23.943066
0.127851,+0000020,-0000031,-0000016,+0000039,-0000097,+0004164,-0000724,+0000428,-0002346,15:04:23.943066
0.128184,+0000014,-0000018,-0000008,+0000047,-0000093,+0004142,-0000732,+0000420,-0002323,15:04:23.943066
0.128517,+0000000,-0000023,-0000002,+0000033,-0000087,+0004161,-0000732,+0000420,-0002323,15:04:23.943066
0.128850,+0000016,-0000008,-0000018,+0000028,-0000088,+0004158,-0000732,+0000420,-0002323,15:04:23.943066
0.129183,+0000009,-0000015,-0000008,+0000046,-0000100,+0004153,-0000736,+0000428,-0002327,15:04:23.943066
0.129516,+0000019,-0000043,-0000011,+0000045,-0000084,+0004143,-0000736,+0000428,-0002327,15:04:23.943066
0.129849,+0000018,-0000035,-0000015,+0000056,-0000092,+0004140,-0000736,+0000428,-0002327,15:04:23.943066
0.130182,+0000025,-0000019,-0000008,+0000038,-0000102,+0004166,-0000748,+0000438,-0002313,15:04:23.943066
0.130515,+0000008,-0000020,-0000013,+0000046,-0000101,+0004155,-0000748,+0000438,-0002313,15:04:23.943066
0.130848,+0000005,-0000007,-0000007,+0000068,-0000097,+0004156,-0000748,+0000438,-0002313,15:04:23.943066
0.131181,+0000011,-0000032,-0000005,+0000034,-0000076,+0004172,-0000740,+0000432,-0002324,15:04:23.943066
0.131514,+0000020,-0000016,-0000002,+0000020,-0000097,+0004152,-0000740,+0000432,-0002324,15:04:23.943066
0.131847,+0000029,-0000043,-0000024,+0000043,-0000095,+0004161,-0000740,+0000432,-0002324,15:04:23.943066
0.132180,+0000007,-0000022,-0000003,+0000030,-0000120,+0004177,-0000728,+0000434,-0002350,15:04:23.943066
0.132513,+0000017,-0000012,-0000012,+0000050,-0000116,+0004157,-0000728,+0000434,-0002350,15:04:23.943066
0.132846,+0000003,+0000000,-0000003,+0000045,-0000068,+0004155,-0000728,+0000434,-0002350,15:04:23.943066
0.133179,+0000022,-0000026,-0000011,+0000046,-0000070,+0004146,-0000736,+0000452,-0002315,15:04:23.943066
0.133512,+0000012,-0000023,-0000008,+0000038,-0000090,+0004153,-0000736,+0000452,-0002315,15:04:23.943066
0.133845,+0000030,-0000051,-0000022,+0000049,-0000088,+0004157,-0000736,+0000452,-0002315,15:04:23.943066
0.134178,+0000008,-0000015,+0000006,+0000050,-0000076,+0004149,-0000738,+0000430,-0002328,15:04:23.943066
0.134511,-0000006,-0000004,-0000008,+0000034,-0000088,+0004161,-0000738,+0000430,-0002328,15:04:23.943066
0.134844,-0000002,-0000005,+0000005,+0000041,-0000078,+0004162,-0000738,+0000430,-0002328,15:04:23.943066
0.135177,+0000027,-0000036,-0000010,+0000032,-0000076,+0004149,-0000736,+0000436,-0002323,15:04:23.943066
0.135510,+0000018,-0000021,-0000008,+0000049,-0000071,+0004150,-0000736,+0000436,-0002323,15:04:23.943066
0.135843,+0000021,-0000043,-0000013,+0000031,-0000087,+0004166,-0000736,+0000436,-0002323,15:04:23.943066
0.136176,+0000010,-0000016,-0000016,+0000036,-0000082,+0004177,-0000730,+0000416,-0002333,15:04:23.943066
0.136509,-0000003,-0000018,+0000000,+0000051,-0000069,+0004138,-0000730,+0000416,-0002333,15:04:23.943066
0.136842,+0000005,-0000013,-0000005,+0000039,-0000092,+0004152,-0000730,+0000416,-0002333,15:04:23.943066
0.137175,+0000022,-0000023,-0000013,+0000034,-0000076,+0004157,-0000732,+0000428,-0002328,15:04:23.943066
0.137508,+0000014,-0000037,-0000010,+0000047,-0000082,+0004145,-0000732,+0000428,-0002328,15:04:23.943066
0.137841,+0000033,-0000015,-0000011,+0000035,-0000078,+0004179,-0000732,+0000428,-0002328,15:04:23.943066
0.138174,+0000031,-0000024,-0000005,+0000030,-0000084,+0004155,-0000730,+0000432,-0002358,15:04:23.943066
0.138507,+0000000,-0000020,-0000005,+0000021,-0000098,+0004129,-0000730,+0000432,-0002358,15:04:23.943066
0.138840,+0000010,-0000010,+0000001,+0000027,-0000102,+0004138,-0000730,+0000432,-0002358,15:04:23.943066
0.139173,+0000013,-0000026,-0000016,+0000022,-0000092,+0004151,-0000740,+0000428,-0002330,15:04:23.943066
0.139506,+0000025,-0000035,-0000016,+0000052,-0000072,+0004164,-0000740,+0000428,-0002330,15:04:23.943066
0.139839,+0000018,-0000039,-0000013,+0000052,-0000077,+0004137,-0000740,+0000428,-0002330,15:04:23.943066
0.140172,+0000013,-0000008,-0000006,+0000036,-0000089,+0004153,-0000734,+0000434,-0002317,15:04:23.943066
0.140505,+0000000,-0000015,-0000016,+0000033,-0000075,+0004153,-0000734,+0000434,-0002317,15:04:23.943066
0.140838,+0000020,-0000017,-0000004,+0000030,-0000089,+0004155,-0000734,+0000434,-0002317,15:04:23.943066
0.141171,+0000006,-0000039,-0000007,+0000037,-0000077,+0004146,-0000734,+0000428,-0002302,15:04:23.943066
0.141504,+0000013,-0000031,-0000013,+0000037,-0000087,+0004142,-0000734,+0000428,-0002302,15:04:23.943066
0.141837,+0000014,-0000034,-0000007,+0000053,-0000083,+0004141,-0000734,+0000428,-0002302,15:04:23.943066
0.142170,+0000013,-0000013,-0000010,+0000044,-0000094,+0004150,-0000730,+0000440,-0002326,15:04:23.943066
0.142503,+0000011,+0000000,+0000001,+0000053,-0000082,+0004161,-0000730,+0000440,-0002326,15:04:23.971103
0.142836,+0000008,-0000022,-0000007,+0000040,-0000085,+0004152,-0000730,+0000440,-0002326,15:04:23.971103
0.143174,+0000014,-0000019,+0000001,+0000043,-0000072,+0004147,-0000742,+0000434,-0002316,15:04:23.971103
0.143845,+0000009,-0000027,-0000010,+0000044,-0000086,+0004159,-0000742,+0000434,-0002316,15:04:23.971103
0.144223,+0000000,-0000013,+0000004,+0000027,-0000072,+0004144,-0000742,+0000434,-0002316,15:04:23.971103
0.144505,+0000012,-0000034,-0000019,+0000043,-0000094,+0004161,-0000754,+0000426,-0002324,15:04:23.971103
0.144838,+0000016,-0000032,-0000010,+0000044,-0000089,+0004138,-0000754,+0000426,-0002324,15:04:23.971103
0.145236,+0000003,-0000019,-0000005,+0000045,-0000099,+0004134,-0000754,+0000426,-0002324,15:04:23.971103
0.145505,+0000030,-0000016,-0000020,+0000039,-0000064,+0004132,-0000752,+0000432,-0002324,15:04:23.971103
0.145834,+0000011,-0000031,-0000008,+0000040,-0000078,+0004138,-0000752,+0000432,-0002324,15:04:23.971103
0.146169,+0000008,-0000011,+0000006,+0000036,-0000101,+0004147,-0000752,+0000432,-0002324,15:04:23.971103
0.146499,+0000016,-0000016,+0000001,+0000048,-0000081,+0004152,-0000752,+0000434,-0002320,15:04:23.971103
0.146832,-0000005,-0000016,+0000001,+0000046,-0000092,+0004143,-0000752,+0000434,-0002320,15:04:23.971103
0.147168,+0000025,-0000050,-0000018,+0000044,-0000058,+0004126,-0000752,+0000434,-0002320,15:04:23.971103
0.147498,+0000026,-0000023,-0000008,+0000049,-0000061,+0004144,-0000750,+0000432,-0002308,15:04:23.971103
0.147837,+0000019,-0000025,-0000014,+0000040,-0000082,+0004130,-0000750,+0000432,-0002308,15:04:23.971103
0.148169,+0000016,-0000015,-0000003,+0000034,-0000086,+0004163,-0000750,+0000432,-0002308,15:04:23.971103
0.148497,+0000011,-0000015,+0000003,+0000031,-0000081,+0004143,-0000748,+0000426,-0002323,15:04:23.971103
0.148830,+0000016,-0000034,-0000012,+0000029,-0000086,+0004156,-0000748,+0000426,-0002323,15:04:23.971103
0.149168,+0000030,-0000034,-0000010,+0000033,-0000107,+0004173,-0000748,+0000426,-0002323,15:04:23.971103
0.149496,+0000024,-0000024,-0000013,+0000050,-0000084,+0004141,-0000734,+0000442,-0002305,15:04:23.971103
0.149829,+0000010,-0000012,-0000024,+0000046,-0000075,+0004161,-0000734,+0000442,-0002305,15:04:23.971103
0.150167,+0000013,-0000013,+0000003,+0000035,-0000112,+0004142,-0000734,+0000442,-0002305,15:04:23.971103
0.150496,+0000011,-0000023,-0000010,+0000028,-0000075,+0004146,-0000738,+0000442,-0002318,15:04:23.971103
0.150828,+0000019,-0000028,+0000000,+0000012,-0000099,+0004140,-0000738,+0000442,-0002318,15:04:23.971103
0.151166,+0000016,-0000039,-0000005,+0000033,-0000076,+0004141,-0000738,+0000442,-0002318,15:04:23.971103
0.151494,+0000043,-0000022,-0000018,+0000035,-0000091,+0004160,-0000724,+0000434,-0002327,15:04:23.974104
0.151827,+0000008,-0000007,-0000005,+0000021,-0000084,+0004167,-0000724,+0000434,-0002327,15:04:23.974104
0.152165,-0000001,-0000021,-0000002,+0000043,-0000093,+0004155,-0000724,+0000434,-0002327,15:04:23.974104
0.152493,+0000011,-0000015,-0000005,+0000045,-0000098,+0004144,-0000740,+0000434,-0002333,15:04:23.974104
0.152826,+0000017,-0000026,-0000013,+0000056,-0000087,+0004148,-0000740,+0000434,-0002333,15:04:23.974104
0.153164,+0000017,-0000040,-0000007,+0000035,-0000089,+0004152,-0000740,+0000434,-0002333,15:04:23.974104
0.153492,+0000009,-0000021,-0000005,+0000040,-0000077,+0004150,-0000748,+0000424,-0002329,15:04:23.974104
0.153825,+0000011,-0000013,-0000008,+0000042,-0000071,+0004144,-0000748,+0000424,-0002329,15:04:23.974104
0.154161,+0000016,-0000019,-0000019,+0000036,-0000083,+0004148,-0000748,+0000424,-0002329,15:04:23.974104
0.154491,+0000002,-0000008,+0000000,+0000041,-0000085,+0004146,-0000734,+0000440,-0002329,15:04:23.974104
0.154824,+0000025,-0000037,-0000005,+0000043,-0000080,+0004163,-0000734,+0000440,-0002329,15:04:23.974104
0.155161,+0000024,-0000047,-0000006,+0000046,-0000092,+0004152,-0000734,+0000440,-0002329,15:04:23.974104
0.155490,+0000014,-0000008,-0000014,+0000043,-0000087,+0004170,-0000736,+0000444,-0002337,15:04:23.974104
0.155823,+0000010,-0000021,-0000004,+0000017,-0000083,+0004165,-0000736,+0000444,-0002337,15:04:23.974104
0.156160,+0000002,-0000007,-0000007,+0000036,-0000105,+0004152,-0000736,+0000444,-0002337,15:04:23.974104
0.156489,+0000016,-0000029,+0000004,+0000057,-0000090,+0004154,-0000736,+0000426,-0002325,15:04:23.974104
0.156822,+0000019,-0000042,-0000015,+0000046,-0000087,+0004152,-0000736,+0000426,-0002325,15:04:23.974104
0.157160,+0000028,-0000045,-0000029,+0000033,-0000091,+0004149,-0000736,+0000426,-0002325,15:04:23.974104
0.157488,+0000005,-0000013,-0000004,+0000036,-0000100,+0004153,-0000756,+0000410,-0002309,15:04:23.974104
0.157821,+0000006,-0000015,-0000007,+0000045,-0000100,+0004162,-0000756,+0000410,-0002309,15:04:23.974104
0.158158,+0000002,-0000011,-0000013,+0000046,-0000109,+0004158,-0000756,+0000410,-0002309,15:04:23.974104
0.158487,+0000019,-0000023,-0000013,+0000030,-0000105,+0004148,-0000738,+0000438,-0002328,15:04:23.974104
0.158820,+0000018,-0000038,-0000002,+0000050,-0000087,+0004159,-0000738,+0000438,-0002328,15:04:23.974104
0.159157,+0000013,-0000024,-0000002,+0000037,-0000099,+0004151,-0000738,+0000438,-0002328,15:04:23.974104
0.159486,+0000027,-0000029,-0000026,+0000033,-0000102,+0004151,-0000722,+0000426,-0002355,15:04:23.974104
0.159819,-0000002,-0000013,+0000008,+0000035,-0000095,+0004146,-0000722,+0000426,-0002355,15:04:23.974104
0.160152,-0000011,-0000010,-0000006,+0000045,-0000091,+0004148,-0000722,+0000426,-0002355,15:04:23.974104
0.160485,+0000030,-0000024,-0000016,+0000049,-0000080,+0004152,-0000742,+0000428,-0002335,15:04:23.974104
0.160818,+0000001,-0000026,+0000000,+0000051,-0000083,+0004140,-0000742,+0000428,-0002335,15:04:23.974104
0.161152,+0000040,-0000034,-0000016,+0000033,-0000099,+0004145,-0000742,+0000428,-0002335,15:04:23.974104
0.161484,+0000002,-0000021,-0000010,+0000042,-0000081,+0004153,-0000736,+0000420,-0002320,15:04:23.974104
0.161817,-0000005,-0000010,-0000005,+0000038,-0000090,+0004147,-0000736,+0000420,-0002320,15:04:23.974104
0.162152,+0000000,-0000013,+0000011,+0000050,-0000069,+0004146,-0000736,+0000420,-0002320,15:04:23.975105
0.162483,+0000024,-0000041,-0000015,+0000024,-0000091,+0004135,-0000726,+0000418,-0002325,15:04:23.975105
0.162816,+0000027,-0000034,+0000004,+0000019,-0000095,+0004129,-0000726,+0000418,-0002325,15:04:23.975105
0.163153,+0000029,-0000034,-0000019,+0000037,-0000104,+0004147,-0000726,+0000418,-0002325,15:04:23.975105
0.163482,+0000016,-0000022,-0000007,+0000050,-0000102,+0004174,-0000736,+0000410,-0002308,15:04:23.975105
0.163815,+0000000,-0000012,-0000004,+0000043,-0000098,+0004156,-0000736,+0000410,-0002308,15:04:23.975105
0.164152,+0000025,-0000026,-0000010,+0000030,-0000078,+0004132,-0000736,+0000410,-0002308,15:04:23.975105
0.164481,+0000011,-0000021,+0000002,+0000048,-0000082,+0004152,-0000734,+0000422,-0002323,15:04:23.975105
0.164814,+0000019,-0000060,-0000018,+0000027,-0000090,+0004154,-0000734,+0000422,-0002323,15:04:23.975105
0.165151,+0000018,-0000031,-0000014,+0000041,-0000093,+0004168,-0000734,+0000422,-0002323,15:04:23.975105
0.165480,+0000010,-0000023,-0000010,+0000025,-0000083,+0004155,-0000724,+0000434,-0002334,15:04:23.975105
0.165813,+0000002,-0000012,-0000011,+0000048,-0000074,+0004162,-0000724,+0000434,-0002334,15:04:23.975105
0.166159,+0000010,-0000010,-0000002,+0000045,-0000094,+0004151,-0000724,+0000434,-0002334,15:04:23.975105
0.166479,+0000010,-0000032,-0000010,+0000027,-0000083,+0004150,-0000744,+0000440,-0002309,15:04:23.975105
0.166812,+0000022,-0000029,-0000013,+0000031,-0000077,+0004163,-0000744,+0000440,-0002309,15:04:23.975105
0.167158,+0000028,-0000034,-0000013,+0000040,-0000073,+0004139,-0000744,+0000440,-0002309,15:04:23.975105
0.167478,+0000013,-0000013,-0000008,+0000053,-0000089,+0004139,-0000748,+0000432,-0002309,15:04:23.975105
0.167811,+0000013,-0000015,+0000001,+0000043,-0000108,+0004150,-0000748,+0000432,-0002309,15:04:23.975105
0.168157,+0000025,-0000021,-0000011,+0000049,-0000072,+0004141,-0000748,+0000432,-0002309,15:04:23.975105
0.168477,-0000003,-0000032,-0000014,+0000055,-0000074,+0004153,-0000724,+0000434,-0002342,15:04:23.975105
0.168810,+0000024,-0000029,-0000010,+0000042,-0000091,+0004144,-0000724,+0000434,-0002342,15:04:23.975105
0.169156,+0000009,-0000019,-0000002,+0000039,-0000077,+0004127,-0000724,+0000434,-0002342,15:04:23.975105
0.169476,+0000014,-0000019,-0000021,+0000047,-0000090,+0004155,-0000712,+0000432,-0002328,15:04:23.975105
0.169809,+0000017,-0000027,+0000001,+0000038,-0000096,+0004158,-0000712,+0000432,-0002328,15:04:23.975105
0.170154,+0000005,-0000006,-0000003,+0000069,-0000084,+0004167,-0000712,+0000432,-0002328,15:04:23.975105
0.170596,+0000030,-0000034,-0000008,+0000034,-0000096,+0004161,-0000742,+0000430,-0002313,15:04:23.975105
0.170810,+0000021,-0000027,-0000019,+0000036,-0000091,+0004173,-0000742,+0000430,-0002313,15:04:23.975105
0.171272,+0000006,-0000032,-0000018,+0000063,-0000098,+0004147,-0000742,+0000430,-0002313,15:04:23.975105
0.171472,+0000028,-0000032,-0000018,+0000063,-0000098,+0004147,-0000742,+0000448,-0002312,15:04:23.975105
0.171812,-0000009,-0000009,-0000004,+0000043,-0000083,+0004159,-0000742,+0000448,-0002312,15:04:23.975105
0.172153,+0000009,-0000033,-0000008,+0000033,-0000084,+0004147,-0000742,+0000448,-0002312,15:04:23.975105
0.172474,+0000018,-0000031,-0000007,+0000031,-0000091,+0004152,-0000752,+0000434,-0002310,15:04:23.975105
0.172807,+0000020,-0000032,-0000008,+0000040,-0000086,+0004155,-0000752,+0000434,-0002310,15:04:23.975105
0.173139,+0000013,-0000027,-0000016,+0000022,-0000077,+0004154,-0000752,+0000434,-0002310,15:04:23.975105
0.173473,+0000014,-0000018,+0000009,+0000041,-0000066,+0004158,-0000734,+0000432,-0002317,15:04:23.975105
0.173807,-0000003,-0000002,+0000006,+0000026,-0000078,+0004146,-0000734,+0000432,-0002317,15:04:23.975105
0.174139,+0000011,-0000021,-0000018,+0000043,-0000096,+0004140,-0000734,+0000432,-0002317,15:04:23.975105
0.174471,+0000022,-0000037,-0000007,+0000039,-0000086,+0004138,-0000738,+0000436,-0002337,15:04:23.975105
0.174804,+0000017,-0000036,-0000005,+0000022,-0000081,+0004138,-0000738,+0000436,-0002337,15:04:23.975105
0.175137,+0000020,-0000026,-0000016,+0000013,-0000095,+0004143,-0000738,+0000436,-0002337,15:04:23.975105
0.175470,-0000005,+0000003,-0000004,+0000039,-0000093,+0004155,-0000738,+0000428,-0002314,15:04:23.975105
0.175803,+0000011,-0000018,-0000011,+0000037,-0000104,+0004142,-0000738,+0000428,-0002314,15:04:23.975105
0.176136,+0000024,-0000031,-0000008,+0000059,-0000093,+0004144,-0000738,+0000428,-0002314,15:04:23.975105
0.176469,+0000024,-0000048,-0000005,+0000038,-0000095,+0004151,-0000738,+0000426,-0002331,15:04:23.975105
0.176802,+0000013,-0000032,-0000011,+0000040,-0000109,+0004140,-0000738,+0000426,-0002331,15:04:23.975105
0.177135,+0000014,-0000008,-0000011,+0000029,-0000076,+0004144,-0000738,+0000426,-0002331,15:04:23.975105
0.177468,+0000000,-0000002,-0000008,+0000028,-0000100,+0004139,-0000728,+0000436,-0002324,15:04:23.975105
0.177801,+0000011,-0000026,-0000005,+0000028,-0000098,+0004147,-0000728,+0000436,-0002324,15:04:23.975105
0.178134,+0000025,-0000034,-0000003,+0000026,-0000103,+0004119,-0000728,+0000436,-0002324,15:04:23.975105
0.178467,+0000014,-0000034,-0000019,+0000024,-0000089,+0004127,-0000754,+0000418,-0002325,15:04:23.975105
0.178800,+0000010,-0000019,-0000004,+0000037,-0000087,+0004139,-0000754,+0000418,-0002325,15:04:23.975105
0.179133,-0000001,-0000018,-0000011,+0000047,-0000094,+0004131,-0000754,+0000418,-0002325,15:04:23.975105
0.179466,+0000006,-0000016,-0000016,+0000022,-0000092,+0004156,-0000740,+0000422,-0002328,15:04:23.975105
0.179799,+0000010,-0000015,-0000007,+0000043,-0000094,+0004160,-0000740,+0000422,-0002328,15:04:23.975105
0.180132,+0000014,-0000027,+0000003,+0000032,-0000060,+0004146,-0000740,+0000422,-0002328,15:04:23.975105
0.180465,+0000025,-0000042,-0000003,+0000035,-0000075,+0004121,-0000746,+0000412,-0002335,15:04:23.975105
0.180798,+0000027,-0000019,-0000011,+0000047,-0000070,+0004156,-0000746,+0000412,-0002335,15:04:23.975105
0.181131,-0000006,-0000013,-0000003,+0000052,-0000089,+0004163,-0000746,+0000412,-0002335,15:04:23.975105
0.181464,+0000006,-0000004,-0000018,+0000032,-0000097,+0004178,-0000758,+0000412,-0002311,15:04:23.975105
0.181797,+0000009,-0000008,-0000001,+0000046,-0000090,+0004135,-0000758,+0000412,-0002311,15:04:23.975105
0.182130,+0000025,-0000045,-0000010,+0000052,-0000068,+0004159,-0000758,+0000412,-0002311,15:04:23.975105
0.182463,+0000030,-0000040,-0000023,+0000044,-0000084,+0004148,-0000742,+0000434,-0002334,15:04:23.975105
0.182796,+0000011,-0000024,-0000002,+0000026,-0000095,+0004133,-0000742,+0000434,-0002334,15:04:23.975105
0.183129,+0000007,-0000018,-0000006,+0000038,-0000090,+0004160,-0000742,+0000434,-0002334,15:04:23.980109
0.183462,+0000006,-0000010,-0000005,+0000027,-0000068,+0004175,-0000744,+0000424,-0002333,15:04:23.980109
0.183795,+0000016,-0000016,+0000003,+0000052,-0000066,+0004144,-0000744,+0000424,-0002333,15:04:23.980109
0.184128,+0000019,-0000029,-0000011,+0000039,-0000072,+0004150,-0000744,+0000424,-0002333,15:04:23.980109
0.184461,+0000030,-0000045,-0000010,+0000050,-0000093,+0004175,-0000744,+0000426,-0002345,15:04:23.980109
0.184794,+0000005,-0000016,-0000016,+0000030,-0000090,+0004160,-0000744,+0000426,-0002345,15:04:23.980109
0.185127,+0000005,-0000018,-0000008,+0000024,-0000083,+0004144,-0000744,+0000426,-0002345,15:04:23.980109
0.185460,+0000005,-0000018,-0000004,+0000039,-0000100,+0004173,-0000742,+0000426,-0002339,15:04:23.980109
0.185793,+0000008,-0000020,-0000015,+0000039,-0000097,+0004157,-0000742,+0000426,-0002339,15:04:23.980109
0.186126,+0000017,-0000020,-0000014,+0000032,-0000086,+0004155,-0000742,+0000426,-0002339,15:04:23.980109
0.186459,+0000021,-0000048,-0000002,+0000032,-0000097,+0004151,-0000744,+0000410,-0002321,15:04:23.980109
0.186792,+0000013,-0000018,-0000021,+0000045,-0000083,+0004161,-0000744,+0000410,-0002321,15:04:23.980109
0.187125,+0000008,-0000023,-0000010,+0000049,-0000091,+0004152,-0000744,+0000410,-0002321,15:04:23.980109
0.187458,+0000010,-0000018,-0000011,+0000054,-0000077,+0004147,-0000732,+0000414,-0002317,15:04:23.980109
0.187791,+0000014,-0000018,-0000008,+0000041,-0000091,+0004159,-0000732,+0000414,-0002317,15:04:23.980109
0.188124,+0000016,-0000034,-0000013,+0000043,-0000097,+0004157,-0000732,+0000414,-0002317,15:04:23.980109
0.188457,+0000022,-0000031,-0000002,+0000026,-0000109,+0004168,-0000740,+0000418,-0002316,15:04:23.980109
0.188790,+0000011,-0000043,-0000018,+0000053,-0000098,+0004155,-0000740,+0000418,-0002316,15:04:23.980109
0.189123,+0000008,-0000012,-0000018,+0000046,-0000086,+0004171,-0000740,+0000418,-0002316,15:04:23.980109
0.189456,+0000002,-0000010,+0000001,+0000042,-0000090,+0004160,-0000732,+0000434,-0002335,15:04:23.980109
0.189789,+0000019,-0000042,-0000013,+0000045,-0000083,+0004141,-0000732,+0000434,-0002335,15:04:23.980109
0.190122,+0000009,-0000036,-0000007,+0000035,-0000080,+0004135,-0000732,+0000434,-0002335,15:04:23.980109
0.190455,+0000024,-0000039,-0000014,+0000024,-0000087,+0004136,-0000744,+0000398,-0002332,15:04:23.980109
0.190788,+0000021,-0000011,-0000011,+0000015,-0000105,+0004148,-0000744,+0000398,-0002332,15:04:23.980109
0.191121,-0000006,-0000002,+0000001,+0000052,-0000103,+0004150,-0000744,+0000398,-0002332,15:04:23.980109
0.191454,+0000016,-0000027,-0000007,+0000040,-0000062,+0004156,-0000716,+0000420,-0002294,15:04:23.980109
0.191787,+0000003,-0000023,-0000005,+0000032,-0000076,+0004144,-0000716,+0000420,-0002294,15:04:23.980109
0.192120,+0000023,-0000032,-0000016,+0000047,-0000081,+0004145,-0000716,+0000420,-0002294,15:04:23.980109
0.192453,+0000011,-0000026,-0000002,+0000045,-0000076,+0004157,-0000746,+0000430,-0002337,15:04:24.043821
0.192787,+0000008,-0000018,-0000013,+0000044,-0000070,+0004150,-0000746,+0000430,-0002337,15:04:24.043821
0.193122,+0000005,-0000011,+0000000,+0000026,-0000109,+0004144,-0000746,+0000430,-0002337,15:04:24.043821
0.193821,+0000011,-0000013,-0000008,+0000055,-0000085,+0004154,-0000736,+0000426,-0002306,15:04:24.043821
0.194214,+0000003,-0000010,+0000001,+0000045,-0000117,+0004142,-0000736,+0000426,-0002306,15:04:24.043821
0.194542,+0000011,-0000011,+0000004,+0000036,-0000069,+0004145,-0000736,+0000426,-0002306,15:04:24.043821
0.194786,+0000011,-0000031,-0000024,+0000026,-0000070,+0004164,-0000728,+0000408,-0002321,15:04:24.043821
0.195119,+0000019,-0000018,+0000011,+0000038,-0000087,+0004145,-0000728,+0000408,-0002321,15:04:24.043821
0.195450,+0000014,-0000026,-0000016,+0000045,-0000083,+0004148,-0000728,+0000408,-0002321,15:04:24.043821
0.195783,+0000036,-0000043,-0000008,+0000039,-0000099,+0004128,-0000722,+0000426,-0002310,15:04:24.043821
0.196116,+0000020,-0000037,-0000010,+0000040,-0000077,+0004143,-0000722,+0000426,-0002310,15:04:24.043821
0.196452,+0000013,-0000013,-0000016,+0000042,-0000100,+0004145,-0000722,+0000426,-0002310,15:04:24.043821
0.196865,+0000010,-0000030,-0000004,+0000050,-0000103,+0004150,-0000728,+0000422,-0002329,15:04:24.043821
0.197120,+0000008,-0000011,-0000005,+0000050,-0000103,+0004150,-0000728,+0000422,-0002329,15:04:24.043821
0.197448,-0000003,+0000003,-0000010,+0000056,-0000100,+0004147,-0000728,+0000422,-0002329,15:04:24.043821
0.197781,+0000025,-0000031,-0000010,+0000046,-0000096,+0004155,-0000728,+0000432,-0002328,15:04:24.043821
0.198114,+0000016,-0000040,-0000013,+0000055,-0000086,+0004160,-0000728,+0000432,-0002328,15:04:24.043821
0.198450,+0000011,-0000019,-0000008,+0000060,-0000084,+0004143,-0000728,+0000432,-0002328,15:04:24.043821
0.198780,+0000020,-0000015,-0000018,+0000050,-0000082,+0004149,-0000736,+0000424,-0002336,15:04:24.043821
0.199113,+0000003,-0000029,-0000003,+0000042,-0000085,+0004145,-0000736,+0000424,-0002336,15:04:24.043821
0.199491,+0000008,-0000011,-0000020,+0000034,-0000109,+0004149,-0000736,+0000424,-0002336,15:04:24.043821
0.199779,+0000006,-0000018,+0000006,+0000034,-0000087,+0004124,-0000738,+0000414,-0002323,15:04:24.043821
0.200114,+0000032,-0000042,-0000023,+0000059,-0000089,+0004161,-0000738,+0000414,-0002323,15:04:24.043821
0.200455,+0000011,-0000027,-0000008,+0000054,-0000091,+0004152,-0000738,+0000414,-0002323,15:04:24.043821
0.200778,+0000024,-0000018,-0000010,+0000026,-0000097,+0004156,-0000722,+0000432,-0002299,15:04:24.043821
0.201113,+0000013,-0000024,-0000021,+0000027,-0000074,+0004141,-0000722,+0000432,-0002299,15:04:24.043821
0.201445,+0000024,-0000034,+0000001,+0000037,-0000095,+0004149,-0000722,+0000432,-0002299,15:04:24.043821
0.201778,+0000032,-0000035,+0000001,+0000039,-0000095,+0004159,-0000724,+0000434,-0002314,15:04:24.043821
0.202112,+0000016,-0000051,-0000023,+0000039,-0000095,+0004148,-0000724,+0000434,-0002314,15:04:24.043821
0.202443,+0000016,-0000026,-0000011,+0000043,-0000091,+0004136,-0000724,+0000434,-0002314,15:04:24.043821
0.202777,-0000001,-0000013,-0000014,+0000046,-0000096,+0004147,-0000736,+0000424,-0002317,15:04:24.043821
0.203110,+0000000,-0000007,+0000006,+0000034,-0000072,+0004152,-0000736,+0000424,-0002317,15:04:24.043821
0.203442,+0000025,-0000024,-0000024,+0000047,-0000086,+0004155,-0000736,+0000424,-0002317,15:04:24.043821
0.203776,+0000014,-0000032,+0000005,+0000035,-0000080,+0004151,-0000738,+0000424,-0002283,15:04:24.043821
0.204112,+0000030,-0000041,-0000011,+0000026,-0000092,+0004158,-0000738,+0000424,-0002283,15:04:24.043821
0.204441,+0000016,-0000018,-0000008,+0000020,-0000091,+0004159,-0000738,+0000424,-0002283,15:04:24.043821
0.204774,+0000010,-0000003,+0000009,+0000019,-0000103,+0004168,-0000734,+0000436,-0002306,15:04:24.043821
0.205107,+0000014,-0000014,-0000005,+0000025,-0000093,+0004171,-0000734,+0000436,-0002306,15:04:24.043821
0.205440,+0000022,-0000038,-0000011,+0000049,-0000094,+0004165,-0000734,+0000436,-0002306,15:04:24.043821
0.205773,+0000022,-0000043,-0000005,+0000051,-0000104,+0004155,-0000740,+0000440,-0002304,15:04:24.043821
0.206106,+0000016,-0000022,-0000016,+0000041,-0000093,+0004157,-0000740,+0000440,-0002304,15:04:24.043821
0.206439,+0000000,-0000008,-0000005,+0000021,-0000096,+0004156,-0000740,+0000440,-0002304,15:04:24.043821
0.206772,+0000016,-0000028,-0000018,+0000045,-0000098,+0004166,-0000732,+0000430,-0002308,15:04:24.043821
0.207105,+0000006,-0000010,-0000001,+0000036,-0000081,+0004164,-0000732,+0000430,-0002308,15:04:24.043821
0.207438,+0000014,-0000035,+0000006,+0000045,-0000092,+0004141,-0000732,+0000430,-0002308,15:04:24.043821
0.207771,+0000020,-0000048,-0000002,+0000038,-0000097,+0004144,-0000738,+0000422,-0002312,15:04:24.043821
0.208104,+0000019,-0000019,-0000016,+0000031,-0000080,+0004145,-0000738,+0000422,-0002312,15:04:24.043821
0.208437,+0000003,-0000015,+0000006,+0000024,-0000077,+0004154,-0000738,+0000422,-0002312,15:04:24.043821
0.208770,+0000013,-0000016,-0000014,+0000048,-0000091,+0004156,-0000730,+0000436,-0002329,15:04:24.043821
0.209103,+0000005,-0000018,+0000003,+0000035,-0000093,+0004166,-0000730,+0000436,-0002329,15:04:24.043821
0.209436,+0000027,-0000022,-0000008,+0000049,-0000096,+0004147,-0000730,+0000436,-0002329,15:04:24.043821
0.209769,+0000014,-0000031,-0000008,+0000049,-0000088,+0004134,-0000740,+0000432,-0002319,15:04:24.043821
0.210102,+0000014,-0000024,-0000004,+0000036,-0000107,+0004172,-0000740,+0000432,-0002319,15:04:24.043821
0.210435,+0000011,-0000018,-0000008,+0000041,-0000096,+0004153,-0000740,+0000432,-0002319,15:04:24.043821
0.210768,+0000008,-0000013,-0000016,+0000033,-0000080,+0004155,-0000720,+0000412,-0002289,15:04:24.043821
0.211101,+0000006,-0000015,+0000003,+0000046,-0000094,+0004119,-0000720,+0000412,-0002289,15:04:24.043821
0.211434,+0000038,-0000035,-0000010,+0000046,-0000089,+0004147,-0000720,+0000412,-0002289,15:04:24.043821
0.211767,+0000005,-0000034,-0000008,+0000051,-0000079,+0004150,-0000734,+0000424,-0002295,15:04:24.043821
0.212100,+0000025,-0000029,-0000002,+0000027,-0000112,+0004164,-0000734,+0000424,-0002295,15:04:24.044821
0.212433,+0000014,-0000023,-0000016,+0000033,-0000081,+0004167,-0000734,+0000424,-0002295,15:04:24.044821
0.212766,+0000008,-0000015,-0000004,+0000034,-0000118,+0004153,-0000730,+0000408,-0002309,15:04:24.044821
0.213099,+0000012,-0000024,-0000008,+0000035,-0000088,+0004153,-0000730,+0000408,-0002309,15:04:24.044821
0.213432,+0000021,-0000026,-0000002,+0000047,-0000088,+0004135,-0000730,+0000408,-0002309,15:04:24.044821
0.213765,+0000019,-0000035,-0000016,+0000036,-0000081,+0004141,-0000726,+0000430,-0002342,15:04:24.044821
0.214098,+0000019,-0000034,-0000014,+0000038,-0000095,+0004152,-0000726,+0000430,-0002342,15:04:24.044821
0.214431,+0000010,-0000013,-0000003,+0000036,-0000091,+0004159,-0000726,+0000430,-0002342,15:04:24.044821
0.214764,+0000011,-0000011,+0000003,+0000039,-0000085,+0004139,-0000732,+0000422,-0002325,15:04:24.044821
0.215097,+0000017,-0000039,-0000011,+0000019,-0000109,+0004150,-0000732,+0000422,-0002325,15:04:24.044821
0.215430,+0000011,-0000035,-0000019,+0000046,-0000087,+0004153,-0000732,+0000422,-0002325,15:04:24.044821
0.215763,+0000028,-0000039,+0000003,+0000052,-0000094,+0004147,-0000716,+0000414,-0002309,15:04:24.044821
0.216096,+0000003,-0000034,-0000011,+0000012,-0000089,+0004143,-0000716,+0000414,-0002309,15:04:24.044821
0.216429,-0000005,-0000015,-0000016,+0000034,-0000100,+0004162,-0000716,+0000414,-0002309,15:04:24.044821
0.216762,+0000014,-0000010,+0000003,+0000037,-0000078,+0004143,-0000720,+0000418,-0002330,15:04:24.044821
0.217095,+0000024,-0000032,-0000016,+0000040,-0000092,+0004150,-0000720,+0000418,-0002330,15:04:24.044821
0.217428,+0000005,-0000032,-0000005,+0000041,-0000082,+0004149,-0000720,+0000418,-0002330,15:04:24.044821
0.217761,+0000038,-0000045,-0000013,+0000036,-0000088,+0004137,-0000722,+0000422,-0002325,15:04:24.044821
0.218094,+0000003,-0000007,-0000007,+0000038,-0000079,+0004150,-0000722,+0000422,-0002325,15:04:24.044821
0.218427,+0000010,-0000013,-0000012,+0000029,-0000078,+0004152,-0000722,+0000422,-0002325,15:04:24.044821
0.218760,+0000008,-0000034,-0000006,+0000045,-0000099,+0004158,-0000736,+0000410,-0002315,15:04:24.044821
0.219093,+0000013,-0000019,-0000008,+0000038,-0000080,+0004154,-0000736,+0000410,-0002315,15:04:24.044821
0.219426,+0000024,-0000043,-0000011,+0000006,-0000090,+0004145,-0000736,+0000410,-0002315,15:04:24.044821
0.219759,+0000008,-0000034,-0000018,+0000039,-0000116,+0004153,-0000740,+0000426,-0002320,15:04:24.044821
0.220092,+0000002,-0000011,-0000007,+0000031,-0000091,+0004152,-0000740,+0000426,-0002320,15:04:24.044821
0.220425,+0000013,-0000013,-0000007,+0000046,-0000086,+0004153,-0000740,+0000426,-0002320,15:04:24.044821
0.220758,+0000010,-0000028,-0000018,+0000033,-0000090,+0004140,-0000742,+0000426,-0002309,15:04:24.044821
0.221091,+0000016,-0000027,+0000003,+0000039,-0000099,+0004135,-0000742,+0000426,-0002309,15:04:24.044821
0.221424,+0000024,-0000029,-0000015,+0000032,-0000097,+0004148,-0000742,+0000426,-0002309,15:04:24.044821
0.221757,+0000030,-0000034,-0000008,+0000049,-0000086,+0004149,-0000730,+0000408,-0002313,15:04:24.044821
0.222090,+0000003,-0000010,-0000015,+0000038,-0000084,+0004148,-0000730,+0000408,-0002313,15:04:24.044821
0.222423,+0000011,-0000016,-0000013,+0000037,-0000069,+0004137,-0000730,+0000408,-0002313,15:04:24.044821
0.222756,+0000007,-0000021,+0000000,+0000035,-0000070,+0004141,-0000726,+0000412,-0002338,15:04:24.044821
0.223089,+0000035,-0000042,-0000007,+0000054,-0000087,+0004129,-0000726,+0000412,-0002338,15:04:24.044821
0.223422,+0000019,-0000040,-0000011,+0000052,-0000075,+0004146,-0000726,+0000412,-0002338,15:04:24.044821
0.223755,+0000011,-0000028,-0000016,+0000051,-0000076,+0004155,-0000730,+0000440,-0002302,15:04:24.044821
0.224088,+0000011,-0000024,-0000015,+0000033,-0000077,+0004147,-0000730,+0000440,-0002302,15:04:24.044821
0.224421,+0000003,-0000012,-0000008,+0000048,-0000092,+0004144,-0000730,+0000440,-0002302,15:04:24.044821
0.224754,+0000015,-0000007,-0000016,+0000063,-0000090,+0004159,-0000728,+0000414,-0002308,15:04:24.044821
0.225087,+0000010,-0000024,+0000002,+0000045,-0000094,+0004142,-0000728,+0000414,-0002308,15:04:24.044821
0.225420,+0000028,-0000048,-0000023,+0000043,-0000068,+0004152,-0000728,+0000414,-0002308,15:04:24.044821
0.225753,+0000008,-0000026,+0000000,+0000051,-0000079,+0004143,-0000732,+0000416,-0002302,15:04:24.044821
0.226086,+0000013,-0000010,-0000019,+0000027,-0000088,+0004169,-0000732,+0000416,-0002302,15:04:24.044821
0.226419,-0000005,-0000016,-0000002,+0000036,-0000094,+0004136,-0000732,+0000416,-0002302,15:04:24.044821
0.226752,+0000006,-0000027,-0000002,+0000057,-0000109,+0004163,-0000746,+0000422,-0002310,15:04:24.044821
0.227085,+0000030,-0000026,-0000007,+0000045,-0000079,+0004145,-0000746,+0000422,-0002310,15:04:24.044821
0.227418,+0000024,-0000037,-0000011,+0000050,-0000090,+0004150,-0000746,+0000422,-0002310,15:04:24.044821
0.227751,+0000006,-0000036,-0000002,+0000056,-0000085,+0004146,-0000738,+0000418,-0002359,15:04:24.044821
0.228084,+0000017,-0000012,-0000026,+0000039,-0000086,+0004130,-0000738,+0000418,-0002359,15:04:24.044821
0.228417,+0000000,-0000010,-0000013,+0000027,-0000085,+0004163,-0000738,+0000418,-0002359,15:04:24.044821
0.228750,+0000024,-0000027,+0000003,+0000047,-0000070,+0004152,-0000738,+0000432,-0002330,15:04:24.044821
0.229083,+0000022,-0000045,-0000018,+0000036,-0000075,+0004167,-0000738,+0000432,-0002330,15:04:24.044821
0.229416,+0000017,-0000034,-0000013,+0000049,-0000086,+0004141,-0000738,+0000432,-0002330,15:04:24.044821
0.229749,+0000008,-0000018,+0000001,+0000047,-0000099,+0004140,-0000730,+0000416,-0002323,15:04:24.044821
0.230082,-0000006,-0000002,-0000001,+0000036,-0000062,+0004152,-0000730,+0000416,-0002323,15:04:24.044821
0.230415,+0000011,-0000013,-0000010,+0000022,-0000085,+0004160,-0000730,+0000416,-0002323,15:04:24.044821
0.230748,+0000014,-0000024,-0000010,+0000028,-0000089,+0004157,-0000746,+0000422,-0002331,15:04:24.044821
0.231081,+0000016,-0000035,+0000000,+0000032,-0000075,+0004161,-0000746,+0000422,-0002331,15:04:24.044821
0.231414,+0000024,-0000044,-0000026,+0000047,-0000092,+0004154,-0000746,+0000422,-0002331,15:04:24.044821
0.231747,+0000008,-0000032,-0000008,+0000033,-0000077,+0004144,-0000724,+0000426,-0002354,15:04:24.044821
0.232080,+0000008,-0000004,-0000010,+0000037,-0000058,+0004145,-0000724,+0000426,-0002354,15:04:24.044821
0.232413,-0000001,-0000010,+0000001,+0000028,-0000079,+0004141,-0000724,+0000426,-0002354,15:04:24.044821
0.232746,+0000027,-0000031,-0000015,+0000024,-0000080,+0004155,-0000730,+0000416,-0002333,15:04:24.044821
0.233079,+0000014,-0000032,-0000005,+0000020,-0000065,+0004162,-0000730,+0000416,-0002333,15:04:24.044821
0.233412,+0000025,-0000013,-0000005,+0000036,-0000087,+0004149,-0000730,+0000416,-0002333,15:04:24.044821
0.233745,+0000014,-0000026,-0000016,+0000019,-0000090,+0004141,-0000740,+0000412,-0002303,15:04:24.044821
0.234078,+0000005,-0000005,-0000003,+0000011,-0000083,+0004137,-0000740,+0000412,-0002303,15:04:24.044821
0.234411,+0000003,-0000026,-0000003,+0000050,-0000098,+0004130,-0000740,+0000412,-0002303,15:04:24.044821
0.234744,+0000019,-0000032,-0000016,+0000059,-0000093,+0004152,-0000734,+0000418,-0002292,15:04:24.044821
0.235077,+0000025,-0000030,-0000007,+0000039,-0000090,+0004152,-0000734,+0000418,-0002292,15:04:24.044821
0.235410,+0000027,-0000026,-0000011,+0000064,-0000106,+0004161,-0000734,+0000418,-0002292,15:04:24.044821
0.235743,+0000014,-0000017,-0000016,+0000051,-0000087,+0004151,-0000736,+0000420,-0002325,15:04:24.044821
0.236076,-0000005,-0000011,+0000001,+0000031,-0000084,+0004194,-0000736,+0000420,-0002325,15:04:24.044821
0.236409,+0000013,-0000023,-0000014,+0000041,-0000075,+0004142,-0000736,+0000420,-0002325,15:04:24.044821
0.236742,+0000018,-0000018,-0000008,+0000029,-0000086,+0004141,-0000726,+0000422,-0002354,15:04:24.044821
0.237075,+0000024,-0000048,-0000021,+0000036,-0000090,+0004153,-0000726,+0000422,-0002354,15:04:24.044821
0.237408,+0000013,-0000018,-0000008,+0000039,-0000093,+0004150,-0000726,+0000422,-0002354,15:04:24.044821
0.237741,+0000008,-0000010,-0000003,+0000039,-0000088,+0004138,-0000726,+0000420,-0002330,15:04:24.044821
0.238074,+0000009,-0000013,-0000011,+0000045,-0000101,+0004158,-0000726,+0000420,-0002330,15:04:24.044821
0.238407,+0000003,-0000016,+0000002,+0000062,-0000078,+0004148,-0000726,+0000420,-0002330,15:04:24.044821
0.238740,+0000027,-0000038,-0000018,+0000046,-0000091,+0004149,-0000728,+0000426,-0002323,15:04:24.044821
0.239073,+0000021,-0000026,-0000006,+0000043,-0000082,+0004157,-0000728,+0000426,-0002323,15:04:24.044821
0.239406,+0000013,-0000024,-0000005,+0000030,-0000115,+0004153,-0000728,+0000426,-0002323,15:04:24.044821
0.239739,+0000020,-0000030,-0000013,+0000044,-0000087,+0004157,-0000732,+0000420,-0002330,15:04:24.044821
0.240072,-0000002,+0000001,+0000003,+0000039,-0000093,+0004148,-0000732,+0000420,-0002330,15:04:24.044821
0.240405,-0000002,-0000007,-0000002,+0000039,-0000094,+0004144,-0000732,+0000420,-0002330,15:04:24.044821
0.240738,+0000030,-0000032,-0000008,+0000054,-0000093,+0004165,-0000742,+0000422,-0002319,15:04:24.044821
0.241071,+0000022,-0000037,-0000015,+0000049,-0000091,+0004154,-0000742,+0000422,-0002319,15:04:24.044821
0.241404,+0000011,-0000023,-0000005,+0000051,-0000059,+0004164,-0000742,+0000422,-0002319,15:04:24.044821
0.241737,+0000016,-0000024,-0000018,+0000038,-0000087,+0004169,-0000730,+0000412,-0002324,15:04:24.044821
0.242070,+0000006,-0000002,+0000003,+0000049,-0000089,+0004152,-0000730,+0000412,-0002324,15:04:24.044821
0.242403,+0000016,-0000032,-0000007,+0000035,-0000080,+0004138,-0000730,+0000412,-0002324,15:04:24.068986
0.242737,+0000027,-0000043,-0000010,+0000033,-0000085,+0004150,-0000740,+0000418,-0002324,15:04:24.068986
0.243071,+0000011,-0000034,-0000007,+0000038,-0000075,+0004155,-0000740,+0000418,-0002324,15:04:24.068986
0.243779,+0000018,-0000018,-0000003,+0000026,-0000076,+0004141,-0000740,+0000418,-0002324,15:04:24.068986
0.244157,-0000006,+0000001,-0000002,+0000043,-0000085,+0004160,-0000734,+0000418,-0002339,15:04:24.068986
0.244415,+0000009,-0000024,-0000002,+0000027,-0000072,+0004157,-0000734,+0000418,-0002339,15:04:24.068986
0.244741,+0000024,-0000029,-0000018,+0000040,-0000079,+0004150,-0000734,+0000418,-0002339,15:04:24.068986
0.245115,+0000025,-0000027,+0000000,+0000040,-0000071,+0004144,-0000732,+0000414,-0002319,15:04:24.068986
0.245402,+0000013,-0000019,-0000005,+0000025,-0000074,+0004152,-0000732,+0000414,-0002319,15:04:24.068986
0.245736,+0000000,-0000018,-0000007,+0000029,-0000068,+0004167,-0000732,+0000414,-0002319,15:04:24.068986
0.246125,+0000007,-0000019,-0000002,+0000027,-0000100,+0004148,-0000752,+0000420,-0002338,15:04:24.068986
0.246399,+0000027,-0000035,-0000008,+0000052,-0000092,+0004169,-0000752,+0000420,-0002338,15:04:24.068986
0.246732,+0000017,-0000011,-0000011,+0000026,-0000088,+0004143,-0000752,+0000420,-0002338,15:04:24.068986
0.247065,+0000024,-0000007,-0000007,+0000028,-0000087,+0004172,-0000738,+0000404,-0002303,15:04:24.068986
0.247398,+0000014,-0000012,-0000005,+0000028,-0000092,+0004146,-0000738,+0000404,-0002303,15:04:24.068986
0.247731,+0000005,-0000013,-0000006,+0000027,-0000083,+0004177,-0000738,+0000404,-0002303,15:04:24.068986
0.248064,+0000006,-0000023,-0000002,+0000045,-0000094,+0004156,-0000736,+0000414,-0002305,15:04:24.068986
0.248397,+0000019,-0000040,-0000014,+0000024,-0000082,+0004150,-0000736,+0000414,-0002305,15:04:24.068986
0.248730,+0000022,-0000040,-0000005,+0000057,-0000086,+0004147,-0000736,+0000414,-0002305,15:04:24.068986
0.249063,+0000021,-0000031,-0000007,+0000028,-0000072,+0004149,-0000746,+0000422,-0002310,15:04:24.068986
0.249396,+0000008,-0000016,-0000016,+0000043,-0000076,+0004145,-0000746,+0000422,-0002310,15:04:24.068986
0.249729,+0000007,-0000013,-0000002,+0000019,-0000073,+0004141,-0000746,+0000422,-0002310,15:04:24.068986
0.250062,+0000011,-0000019,-0000018,+0000023,-0000092,+0004149,-0000736,+0000420,-0002342,15:04:24.068986
0.250395,+0000018,-0000021,-0000011,+0000039,-0000085,+0004159,-0000736,+0000420,-0002342,15:04:24.068986
0.250728,+0000014,-0000024,-0000010,+0000014,-0000096,+0004163,-0000736,+0000420,-0002342,15:04:24.068986
0.251061,+0000013,-0000035,+0000001,+0000032,-0000091,+0004148,-0000752,+0000424,-0002289,15:04:24.068986
0.251422,+0000010,-0000014,-0000015,+0000036,-0000117,+0004145,-0000752,+0000424,-0002289,15:04:24.068986
0.251727,+0000014,-0000011,-0000010,+0000026,-0000107,+0004156,-0000752,+0000424,-0002289,15:04:24.068986
0.252060,+0000011,-0000024,-0000018,+0000014,-0000087,+0004158,-0000742,+0000408,-0002339,15:04:24.068986
0.252393,+0000014,-0000030,-0000005,+0000027,-0000110,+0004167,-0000742,+0000408,-0002339,15:04:24.068986
0.252726,+0000027,-0000042,-0000016,+0000042,-0000089,+0004152,-0000742,+0000408,-0002339,15:04:24.068986
0.253059,+0000017,-0000029,-0000004,+0000026,-0000107,+0004155,-0000752,+0000420,-0002326,15:04:24.068986
0.253392,+0000005,-0000014,-0000019,+0000036,-0000088,+0004160,-0000752,+0000420,-0002326,15:04:24.068986
0.253725,+0000010,-0000021,-0000001,+0000032,-0000082,+0004156,-0000752,+0000420,-0002326,15:04:24.068986
0.254058,+0000021,-0000016,-0000003,+0000040,-0000105,+0004128,-0000732,+0000430,-0002314,15:04:24.068986
0.254391,+0000008,-0000037,-0000003,+0000033,-0000092,+0004149,-0000732,+0000430,-0002314,15:04:24.068986
0.254725,+0000022,-0000038,-0000008,+0000032,-0000088,+0004173,-0000732,+0000430,-0002314,15:04:24.068986
0.255057,+0000024,-0000019,-0000018,+0000015,-0000103,+0004148,-0000748,+0000416,-0002338,15:04:24.068986
0.255390,+0000002,-0000018,-0000010,+0000053,-0000092,+0004186,-0000748,+0000416,-0002338,15:04:24.068986
0.255723,-0000001,+0000005,-0000003,+0000041,-0000092,+0004163,-0000748,+0000416,-0002338,15:04:24.068986
0.256056,+0000016,-0000027,-0000005,+0000043,-0000082,+0004134,-0000746,+0000416,-0002323,15:04:24.068986
0.256389,+0000028,-0000042,-0000015,+0000052,-0000080,+0004137,-0000746,+0000416,-0002323,15:04:24.068986
0.256722,+0000013,-0000036,-0000004,+0000043,-0000066,+0004156,-0000746,+0000416,-0002323,15:04:24.068986
0.257055,+0000027,-0000035,-0000013,+0000047,-0000081,+0004146,-0000758,+0000430,-0002301,15:04:24.068986
0.257388,-0000008,+0000006,-0000004,+0000030,-0000082,+0004142,-0000758,+0000430,-0002301,15:04:24.068986
0.257721,+0000008,-0000016,-0000004,+0000027,-0000112,+0004150,-0000758,+0000430,-0002301,15:04:24.068986
0.258054,+0000028,-0000037,-0000011,+0000043,-0000111,+0004155,-0000726,+0000420,-0002317,15:04:24.068986
0.258387,+0000005,-0000029,-0000005,+0000043,-0000094,+0004142,-0000726,+0000420,-0002317,15:04:24.068986
0.258720,+0000024,-0000035,-0000004,+0000060,-0000080,+0004142,-0000726,+0000420,-0002317,15:04:24.073315
0.259053,-0000002,-0000018,-0000010,+0000040,-0000092,+0004129,-0000746,+0000410,-0002328,15:04:24.073315
0.259386,+0000005,-0000010,+0000002,+0000038,-0000094,+0004159,-0000746,+0000410,-0002328,15:04:24.073315
0.259719,+0000016,-0000013,-0000005,+0000045,-0000092,+0004167,-0000746,+0000410,-0002328,15:04:24.073315
0.260052,+0000019,-0000035,-0000015,+0000040,-0000090,+0004165,-0000726,+0000426,-0002338,15:04:24.073315
0.260385,+0000013,-0000040,-0000013,+0000050,-0000081,+0004138,-0000726,+0000426,-0002338,15:04:24.073315
0.260718,+0000021,-0000023,-0000013,+0000042,-0000096,+0004156,-0000726,+0000426,-0002338,15:04:24.073315
0.261051,+0000006,-0000008,-0000013,+0000047,-0000074,+0004156,-0000736,+0000426,-0002347,15:04:24.073315
0.261384,+0000006,-0000010,-0000003,+0000019,-0000085,+0004146,-0000736,+0000426,-0002347,15:04:24.073315
0.261717,+0000014,-0000018,-0000010,+0000055,-0000087,+0004142,-0000736,+0000426,-0002347,15:04:24.073315
0.262050,+0000012,-0000024,-0000005,+0000059,-0000085,+0004140,-0000742,+0000412,-0002310,15:04:24.073315
0.262383,+0000028,-0000039,-0000026,+0000034,-0000079,+0004127,-0000742,+0000412,-0002310,15:04:24.073315
0.262716,+0000007,-0000027,-0000007,+0000027,-0000077,+0004161,-0000742,+0000412,-0002310,15:04:24.073315
0.263049,+0000018,-0000010,-0000003,+0000042,-0000102,+0004164,-0000742,+0000422,-0002312,15:04:24.073315
0.263382,+0000005,-0000021,-0000011,+0000045,-0000088,+0004149,-0000742,+0000422,-0002312,15:04:24.074315
0.263715,+0000016,-0000016,-0000007,+0000029,-0000084,+0004172,-0000742,+0000422,-0002312,15:04:24.074315
0.264048,+0000015,-0000029,-0000007,+0000043,-0000080,+0004146,-0000730,+0000414,-0002320,15:04:24.074315
0.264381,+0000022,-0000030,-0000007,+0000018,-0000070,+0004148,-0000730,+0000414,-0002320,15:04:24.074315
0.264714,+0000014,-0000018,-0000012,+0000024,-0000084,+0004146,-0000730,+0000414,-0002320,15:04:24.074315
0.265047,+0000006,-0000011,+0000001,+0000034,-0000078,+0004144,-0000754,+0000418,-0002309,15:04:24.074315
0.265380,+0000005,-0000016,-0000013,+0000037,-0000098,+0004166,-0000754,+0000418,-0002309,15:04:24.074315
0.265713,+0000015,-0000011,-0000013,+0000029,-0000096,+0004155,-0000754,+0000418,-0002309,15:04:24.074315
0.266046,+0000011,-0000048,+0000001,+0000031,-0000084,+0004150,-0000736,+0000414,-0002315,15:04:24.074315
0.266379,+0000024,-0000035,-0000013,+0000029,-0000089,+0004129,-0000736,+0000414,-0002315,15:04:24.074315
0.266712,+0000016,-0000029,-0000010,+0000040,-0000088,+0004155,-0000736,+0000414,-0002315,15:04:24.074315
0.267080,+0000008,-0000021,-0000005,+0000064,-0000096,+0004146,-0000738,+0000418,-0002339,15:04:24.074315
0.267378,+0000011,-0000010,-0000013,+0000038,-0000107,+0004152,-0000738,+0000418,-0002339,15:04:24.074315
0.267711,+0000035,-0000039,-0000011,+0000025,-0000101,+0004160,-0000738,+0000418,-0002339,15:04:24.074315
0.268044,+0000009,-0000027,-0000016,+0000029,-0000086,+0004158,-0000736,+0000426,-0002337,15:04:24.074315
0.268377,+0000021,-0000032,-0000004,+0000043,-0000080,+0004151,-0000736,+0000426,-0002337,15:04:24.074315
0.268710,+0000017,-0000045,-0000024,+0000049,-0000090,+0004159,-0000736,+0000426,-0002337,15:04:24.074315
0.269043,-0000003,-0000002,+0000005,+0000061,-0000093,+0004158,-0000744,+0000422,-0002326,15:04:24.074315
0.269376,+0000011,-0000003,+0000006,+0000037,-0000085,+0004135,-0000744,+0000422,-0002326,15:04:24.074315
0.269709,+0000006,-0000027,-0000019,+0000039,-0000095,+0004169,-0000744,+0000422,-0002326,15:04:24.074315
0.270042,+0000022,-0000027,-0000005,+0000027,-0000095,+0004139,-0000738,+0000406,-0002348,15:04:24.074315
0.270375,+0000027,-0000039,-0000007,+0000034,-0000087,+0004143,-0000738,+0000406,-0002348,15:04:24.074315
0.270708,+0000017,-0000024,-0000013,+0000041,-0000084,+0004147,-0000738,+0000406,-0002348,15:04:24.074315
0.271041,+0000000,+0000009,+0000000,+0000037,-0000080,+0004128,-0000748,+0000410,-0002338,15:04:24.074315
0.271374,+0000019,-0000029,-0000002,+0000040,-0000080,+0004138,-0000748,+0000410,-0002338,15:04:24.074315
0.271707,+0000000,-0000016,-0000010,+0000052,-0000081,+0004147,-0000748,+0000410,-0002338,15:04:24.074315
0.272041,+0000027,-0000050,-0000014,+0000031,-0000079,+0004133,-0000736,+0000426,-0002322,15:04:24.074315
0.272373,+0000028,-0000026,-0000011,+0000025,-0000080,+0004132,-0000736,+0000426,-0002322,15:04:24.074315
0.272706,+0000014,-0000024,-0000019,+0000040,-0000101,+0004159,-0000736,+0000426,-0002322,15:04:24.076315
0.273114,-0000008,-0000010,+0000005,+0000054,-0000085,+0004136,-0000724,+0000408,-0002310,15:04:24.076315
0.273408,+0000032,-0000018,-0000018,+0000055,-0000082,+0004154,-0000724,+0000408,-0002310,15:04:24.076315
0.273709,+0000008,-0000029,+0000005,+0000052,-0000094,+0004152,-0000724,+0000408,-0002310,15:04:24.076315
0.274039,+0000024,-0000035,-0000018,+0000032,-0000113,+0004157,-0000750,+0000398,-0002347,15:04:24.076315
0.274372,+0000008,-0000012,-0000010,+0000041,-0000071,+0004125,-0000750,+0000398,-0002347,15:04:24.076315
0.274705,+0000013,-0000013,-0000008,+0000053,-0000076,+0004125,-0000750,+0000398,-0002347,15:04:24.076315
0.275037,+0000016,-0000018,-0000024,+0000039,-0000074,+0004152,-0000738,+0000426,-0002314,15:04:24.076315
0.275370,+0000000,-0000015,+0000003,+0000038,-0000077,+0004148,-0000738,+0000426,-0002314,15:04:24.076315
0.275704,+0000016,-0000032,-0000002,+0000042,-0000095,+0004150,-0000738,+0000426,-0002314,15:04:24.076315
0.276036,+0000022,-0000029,-0000018,+0000051,-0000069,+0004157,-0000738,+0000404,-0002297,15:04:24.076315
0.276370,+0000012,-0000034,-0000010,+0000036,-0000091,+0004154,-0000738,+0000404,-0002297,15:04:24.076315
0.276704,+0000017,-0000007,-0000011,+0000035,-0000074,+0004148,-0000738,+0000404,-0002297,15:04:24.076315
0.277035,+0000008,-0000012,+0000004,+0000042,-0000078,+0004158,-0000752,+0000418,-0002312,15:04:24.076315
0.277368,+0000014,-0000030,-0000021,+0000032,-0000097,+0004154,-0000752,+0000418,-0002312,15:04:24.076315
0.277701,+0000010,-0000024,-0000010,+0000040,-0000093,+0004158,-0000752,+0000418,-0002312,15:04:24.076315
0.278034,+0000032,-0000032,-0000003,+0000049,-0000092,+0004150,-0000736,+0000410,-0002334,15:04:24.076315
0.278367,+0000019,-0000026,-0000011,+0000039,-0000080,+0004155,-0000736,+0000410,-0002334,15:04:24.076315
0.278700,+0000016,-0000015,-0000014,+0000048,-0000088,+0004148,-0000736,+0000410,-0002334,15:04:24.076315
0.279033,-0000003,-0000010,-0000002,+0000040,-0000093,+0004140,-0000756,+0000416,-0002301,15:04:24.076315
0.279366,+0000016,-0000008,-0000008,+0000031,-0000070,+0004156,-0000756,+0000416,-0002301,15:04:24.076315
0.279699,+0000029,-0000039,-0000013,+0000048,-0000073,+0004139,-0000756,+0000416,-0002301,15:04:24.076315
0.280032,+0000021,-0000029,-0000016,+0000037,-0000077,+0004147,-0000738,+0000404,-0002297,15:04:24.076315
0.280365,+0000003,-0000018,-0000005,+0000040,-0000089,+0004146,-0000738,+0000404,-0002297,15:04:24.076315
0.280698,+0000032,-0000024,-0000018,+0000033,-0000093,+0004158,-0000738,+0000404,-0002297,15:04:24.076315
0.281031,-0000004,-0000011,+0000001,+0000029,-0000105,+0004148,-0000746,+0000400,-0002298,15:04:24.076315
0.281364,+0000011,-0000015,+0000000,+0000029,-0000092,+0004127,-0000746,+0000400,-0002298,15:04:24.076315
0.281697,+0000025,-0000023,-0000010,+0000046,-0000070,+0004132,-0000746,+0000400,-0002298,15:04:24.078315
0.282030,+0000022,-0000047,-0000015,+0000043,-0000090,+0004149,-0000742,+0000412,-0002313,15:04:24.078315
0.282363,+0000008,-0000018,-0000016,+0000029,-0000092,+0004148,-0000742,+0000412,-0002313,15:04:24.078315
0.282696,+0000012,-0000031,-0000007,+0000034,-0000086,+0004177,-0000742,+0000412,-0002313,15:04:24.078315
0.283029,-0000008,-0000005,+0000006,+0000028,-0000094,+0004174,-0000744,+0000426,-0002307,15:04:24.078315
0.283362,+0000009,-0000026,-0000013,+0000034,-0000113,+0004160,-0000744,+0000426,-0002307,15:04:24.078315
0.283695,+0000022,-0000029,-0000010,+0000042,-0000098,+0004151,-0000744,+0000426,-0002307,15:04:24.078315
0.284028,+0000017,-0000039,-0000011,+0000040,-0000104,+0004152,-0000738,+0000432,-0002313,15:04:24.078315
0.284361,+0000003,-0000030,-0000017,+0000043,-0000076,+0004157,-0000738,+0000432,-0002313,15:04:24.078315
0.284694,+0000000,+0000003,+0000000,+0000057,-0000073,+0004130,-0000738,+0000432,-0002313,15:04:24.078315
0.285027,+0000003,-0000008,-0000015,+0000052,-0000083,+0004150,-0000740,+0000410,-0002325,15:04:24.078315
0.285360,+0000011,-0000031,-0000002,+0000040,-0000071,+0004182,-0000740,+0000410,-0002325,15:04:24.078315
0.285693,+0000027,-0000045,-0000011,+0000040,-0000103,+0004166,-0000740,+0000410,-0002325,15:04:24.078315
0.286026,+0000025,-0000032,-0000013,+0000031,-0000095,+0004158,-0000750,+0000426,-0002316,15:04:24.078315
0.286359,+0000002,-0000011,+0000001,+0000040,-0000083,+0004156,-0000750,+0000426,-0002316,15:04:24.079315
0.286692,-0000008,-0000011,+0000003,+0000039,-0000084,+0004134,-0000750,+0000426,-0002316,15:04:24.079315
0.287025,+0000025,-0000018,-0000008,+0000042,-0000103,+0004154,-0000734,+0000412,-0002330,15:04:24.079315
0.287358,+0000013,-0000013,-0000014,+0000039,-0000091,+0004145,-0000734,+0000412,-0002330,15:04:24.079315
0.287691,+0000021,-0000042,-0000002,+0000038,-0000073,+0004159,-0000734,+0000412,-0002330,15:04:24.079315
0.288024,+0000027,-0000013,-0000013,+0000041,-0000092,+0004170,-0000740,+0000424,-0002305,15:04:24.079315
0.288357,+0000009,-0000019,-0000003,+0000046,-0000098,+0004161,-0000740,+0000424,-0002305,15:04:24.079315
0.288690,+0000014,-0000013,-0000019,+0000038,-0000076,+0004152,-0000740,+0000424,-0002305,15:04:24.079315
0.289023,+0000010,-0000011,-0000005,+0000037,-0000093,+0004150,-0000752,+0000416,-0002304,15:04:24.079315
0.289356,+0000014,-0000029,-0000010,+0000040,-0000098,+0004136,-0000752,+0000416,-0002304,15:04:24.079315
0.289689,+0000016,-0000045,-0000016,+0000037,-0000088,+0004136,-0000752,+0000416,-0002304,15:04:24.079315
0.290022,+0000009,-0000026,-0000008,+0000030,-0000102,+0004150,-0000744,+0000414,-0002324,15:04:24.079315
0.290355,+0000013,-0000023,-0000007,+0000050,-0000101,+0004146,-0000744,+0000414,-0002324,15:04:24.079315
0.290688,+0000013,-0000007,-0000016,+0000041,-0000079,+0004149,-0000744,+0000414,-0002324,15:04:24.079315
0.291021,+0000002,-0000018,-0000007,+0000054,-0000069,+0004148,-0000748,+0000422,-0002341,15:04:24.079315
0.291354,+0000014,-0000023,-0000007,+0000050,-0000085,+0004152,-0000748,+0000422,-0002341,15:04:24.079315
0.291687,+0000017,-0000040,-0000018,+0000039,-0000088,+0004162,-0000748,+0000422,-0002341,15:04:24.079315
0.292020,+0000007,-0000023,+0000009,+0000044,-0000091,+0004145,-0000744,+0000416,-0002325,15:04:24.079315
0.292353,+0000019,-0000016,-0000010,+0000041,-0000099,+0004133,-0000744,+0000416,-0002325,15:04:24.079315
0.292687,+0000008,-0000009,-0000023,+0000043,-0000084,+0004140,-0000744,+0000416,-0002325,15:04:24.145895
0.293020,+0000006,-0000018,+0000001,+0000042,-0000087,+0004148,-0000748,+0000400,-0002329,15:04:24.145895
0.293355,+0000013,-0000029,-0000014,+0000036,-0000091,+0004157,-0000748,+0000400,-0002329,15:04:24.145895
0.293849,+0000005,-0000018,-0000001,+0000026,-0000088,+0004144,-0000748,+0000400,-0002329,15:04:24.145895
0.294047,+0000005,-0000018,-0000001,+0000026,-0000088,+0004144,-0000744,+0000414,-0002338,15:04:24.145895
0.294410,+0000003,-0000026,-0000006,+0000038,-0000107,+0004144,-0000744,+0000414,-0002338,15:04:24.146883
0.294977,+0000013,-0000018,-0000005,+0000047,-0000085,+0004164,-0000744,+0000414,-0002338,15:04:24.146883
0.295167,+0000013,-0000018,-0000005,+0000047,-0000085,+0004164,-0000754,+0000412,-0002321,15:04:24.146883
0.295371,+0000005,-0000018,-0000013,+0000043,-0000067,+0004166,-0000754,+0000412,-0002321,15:04:24.146883
0.295685,+0000010,-0000017,-0000010,+0000046,-0000086,+0004136,-0000754,+0000412,-0002321,15:04:24.146883
0.296089,+0000008,-0000008,-0000015,+0000033,-0000102,+0004162,-0000746,+0000414,-0002330,15:04:24.147887
0.296370,+0000003,-0000013,-0000005,+0000044,-0000086,+0004155,-0000746,+0000414,-0002330,15:04:24.147887
0.296683,+0000008,-0000007,-0000014,+0000036,-0000103,+0004150,-0000746,+0000414,-0002330,15:04:24.147887
0.297015,+0000025,-0000032,-0000010,+0000036,-0000082,+0004155,-0000746,+0000414,-0002330,15:04:24.147887
0.297350,+0000008,-0000031,-0000015,+0000037,-0000065,+0004131,-0000746,+0000414,-0002330,15:04:24.147887
0.297682,+0000032,-0000046,-0000016,+0000042,-0000087,+0004154,-0000746,+0000414,-0002330,15:04:24.149887
0.298014,+0000005,-0000021,+0000000,+0000034,-0000092,+0004144,-0000742,+0000404,-0002306,15:04:24.149887
0.298348,-0000009,+0000005,-0000005,+0000045,-0000072,+0004137,-0000742,+0000404,-0002306,15:04:24.150889
0.298711,+0000005,-0000006,-0000008,+0000049,-0000083,+0004157,-0000742,+0000404,-0002306,15:04:24.150889
0.299015,+0000002,-0000012,-0000010,+0000049,-0000089,+0004165,-0000738,+0000430,-0002328,15:04:24.150889
0.299348,+0000024,-0000028,-0000020,+0000050,-0000080,+0004143,-0000738,+0000430,-0002328,15:04:24.150889
0.299679,+0000003,-0000036,-0000002,+0000047,-0000072,+0004171,-0000738,+0000430,-0002328,15:04:24.150889
0.300116,+0000000,-0000016,-0000019,+0000051,-0000089,+0004179,-0000744,+0000408,-0002313,15:04:24.150889
0.300361,+0000024,-0000010,-0000002,+0000030,-0000092,+0004158,-0000744,+0000408,-0002313,15:04:24.150889
0.300681,+0000020,-0000056,-0000011,+0000038,-0000092,+0004156,-0000744,+0000408,-0002313,15:04:24.150889
0.301011,+0000019,-0000023,-0000024,+0000031,-0000084,+0004149,-0000738,+0000418,-0002348,15:04:24.150889
0.301344,+0000027,-0000030,-0000003,+0000013,-0000095,+0004162,-0000738,+0000418,-0002348,15:04:24.150889
0.301677,+0000016,-0000027,-0000013,+0000022,-0000100,+0004148,-0000738,+0000418,-0002348,15:04:24.150889
0.302010,+0000006,-0000021,-0000011,+0000030,-0000067,+0004144,-0000760,+0000418,-0002344,15:04:24.150889
0.302343,+0000006,-0000007,-0000003,+0000027,-0000086,+0004143,-0000760,+0000418,-0002344,15:04:24.150889
0.302676,-0000002,-0000015,-0000003,+0000051,-0000084,+0004148,-0000760,+0000418,-0002344,15:04:24.150889
0.303009,+0000014,-0000026,-0000010,+0000036,-0000090,+0004167,-0000752,+0000416,-0002335,15:04:24.150889
0.303342,+0000024,-0000042,-0000008,+0000049,-0000096,+0004162,-0000752,+0000416,-0002335,15:04:24.150889
0.303675,+0000013,-0000020,-0000015,+0000041,-0000087,+0004146,-0000752,+0000416,-0002335,15:04:24.150889
0.304008,+0000008,-0000022,-0000008,+0000023,-0000099,+0004138,-0000750,+0000428,-0002343,15:04:24.150889
0.304341,+0000011,-0000003,+0000000,+0000043,-0000092,+0004157,-0000750,+0000428,-0002343,15:04:24.150889
0.304674,+0000014,-0000018,-0000015,+0000035,-0000071,+0004158,-0000750,+0000428,-0002343,15:04:24.150889
0.305007,+0000016,-0000027,+0000001,+0000041,-0000071,+0004144,-0000734,+0000412,-0002309,15:04:24.150889
0.305340,+0000025,-0000032,-0000021,+0000047,-0000089,+0004162,-0000734,+0000412,-0002309,15:04:24.150889
0.305673,+0000008,-0000029,-0000008,+0000025,-0000098,+0004150,-0000734,+0000412,-0002309,15:04:24.150889
0.306006,+0000017,-0000023,-0000007,+0000026,-0000083,+0004152,-0000754,+0000422,-0002355,15:04:24.150889
0.306339,+0000002,-0000011,-0000008,+0000032,-0000080,+0004168,-0000754,+0000422,-0002355,15:04:24.150889
0.306673,+0000008,-0000027,-0000007,+0000072,-0000070,+0004158,-0000754,+0000422,-0002355,15:04:24.150889
0.307005,+0000025,-0000032,-0000018,+0000044,-0000072,+0004146,-0000750,+0000416,-0002305,15:04:24.150889
0.307338,+0000017,-0000031,+0000000,+0000050,-0000069,+0004150,-0000750,+0000416,-0002305,15:04:24.150889
0.307673,+0000030,-0000031,-0000019,+0000022,-0000076,+0004157,-0000750,+0000416,-0002305,15:04:24.150889
0.308004,+0000005,-0000020,-0000002,+0000043,-0000083,+0004156,-0000744,+0000420,-0002343,15:04:24.150889
0.308337,+0000019,-0000020,-0000006,+0000026,-0000079,+0004154,-0000744,+0000420,-0002343,15:04:24.150889
0.308670,+0000005,-0000027,-0000016,+0000051,-0000088,+0004134,-0000744,+0000420,-0002343,15:04:24.150889
0.309003,+0000022,-0000024,-0000005,+0000055,-0000087,+0004121,-0000754,+0000428,-0002339,15:04:24.150889
0.309336,+0000020,-0000040,-0000015,+0000053,-0000108,+0004142,-0000754,+0000428,-0002339,15:04:24.150889
0.309670,+0000016,-0000019,-0000013,+0000053,-0000084,+0004158,-0000754,+0000428,-0002339,15:04:24.150889
0.310002,+0000012,-0000018,-0000005,+0000059,-0000077,+0004165,-0000752,+0000432,-0002302,15:04:24.150889
0.310335,-0000008,-0000002,+0000003,+0000047,-0000100,+0004137,-0000752,+0000432,-0002302,15:04:24.150889
0.310670,+0000027,-0000026,-0000010,+0000024,-0000096,+0004147,-0000752,+0000432,-0002302,15:04:24.150889
0.311001,+0000024,-0000041,-0000011,+0000029,-0000092,+0004145,-0000744,+0000418,-0002324,15:04:24.150889
0.311334,+0000023,-0000040,-0000011,+0000039,-0000070,+0004149,-0000744,+0000418,-0002324,15:04:24.150889
0.311670,+0000003,-0000021,-0000003,+0000059,-0000086,+0004142,-0000744,+0000418,-0002324,15:04:24.150889
0.312000,-0000005,+0000000,-0000001,+0000033,-0000068,+0004138,-0000738,+0000432,-0002317,15:04:24.150889
0.312333,+0000012,-0000034,-0000008,+0000039,-0000070,+0004126,-0000738,+0000432,-0002317,15:04:24.150889
0.312666,+0000012,-0000016,-0000011,+0000029,-0000068,+0004149,-0000738,+0000432,-0002317,15:04:24.150889
0.312999,+0000024,-0000024,-0000008,+0000050,-0000077,+0004153,-0000750,+0000426,-0002319,15:04:24.150889
0.313332,+0000022,-0000048,-0000019,+0000063,-0000091,+0004140,-0000750,+0000426,-0002319,15:04:24.150889
0.313666,+0000004,-0000029,-0000008,+0000027,-0000077,+0004132,-0000750,+0000426,-0002319,15:04:24.150889
0.313998,+0000017,-0000005,+0000004,+0000046,-0000103,+0004159,-0000764,+0000448,-0002316,15:04:24.150889
0.314331,+0000003,-0000024,-0000013,+0000033,-0000091,+0004163,-0000764,+0000448,-0002316,15:04:24.150889
0.314666,+0000025,-0000028,-0000007,+0000009,-0000078,+0004159,-0000764,+0000448,-0002316,15:04:24.150889
0.314997,+0000024,-0000037,-0000003,+0000053,-0000076,+0004133,-0000754,+0000426,-0002311,15:04:24.150889
0.315330,+0000029,-0000029,-0000002,+0000038,-0000075,+0004171,-0000754,+0000426,-0002311,15:04:24.150889
0.315666,+0000003,-0000012,-0000005,+0000048,-0000087,+0004152,-0000754,+0000426,-0002311,15:04:24.150889
0.315996,+0000005,-0000024,-0000010,+0000035,-0000086,+0004156,-0000746,+0000432,-0002332,15:04:24.150889
0.316329,+0000002,-0000019,+0000009,+0000042,-0000098,+0004147,-0000746,+0000432,-0002332,15:04:24.150889
0.316666,+0000014,-0000024,-0000015,+0000045,-0000109,+0004150,-0000746,+0000432,-0002332,15:04:24.151888
0.316995,+0000024,-0000013,-0000012,+0000064,-0000091,+0004151,-0000742,+0000412,-0002315,15:04:24.151888
0.317328,+0000025,-0000027,-0000003,+0000041,-0000102,+0004138,-0000742,+0000412,-0002315,15:04:24.151888
0.317666,-0000008,-0000011,-0000010,+0000047,-0000088,+0004161,-0000742,+0000412,-0002315,15:04:24.151888
0.317994,+0000008,-0000019,-0000013,+0000046,-0000104,+0004167,-0000744,+0000418,-0002336,15:04:24.151888
0.318327,-0000001,-0000024,-0000010,+0000039,-0000092,+0004142,-0000744,+0000418,-0002336,15:04:24.151888
0.318665,+0000016,-0000029,-0000010,+0000061,-0000077,+0004159,-0000744,+0000418,-0002336,15:04:24.151888
0.318993,+0000027,-0000021,-0000010,+0000048,-0000076,+0004138,-0000758,+0000430,-0002315,15:04:24.151888
0.319326,+0000011,-0000024,-0000018,+0000035,-0000090,+0004144,-0000758,+0000430,-0002315,15:04:24.151888
0.319664,+0000006,-0000019,-0000011,+0000034,-0000080,+0004153,-0000758,+0000430,-0002315,15:04:24.151888
0.319992,+0000003,-0000019,+0000000,+0000035,-0000077,+0004161,-0000722,+0000426,-0002281,15:04:24.151888
0.320325,+0000002,-0000026,-0000011,+0000039,-0000084,+0004145,-0000722,+0000426,-0002281,15:04:24.151888
0.320664,+0000008,-0000023,+0000000,+0000025,-0000086,+0004156,-0000722,+0000426,-0002281,15:04:24.151888
0.320991,+0000021,-0000037,-0000014,+0000042,-0000086,+0004136,-0000722,+0000426,-0002324,15:04:24.151888
0.321324,+0000008,-0000019,-0000005,+0000027,-0000072,+0004140,-0000722,+0000426,-0002324,15:04:24.151888
0.321663,+0000014,-0000035,-0000016,+0000027,-0000085,+0004155,-0000722,+0000426,-0002324,15:04:24.151888
0.321990,-0000006,+0000006,-0000017,+0000026,-0000106,+0004187,-0000728,+0000440,-0002329,15:04:24.151888
0.322323,+0000007,-0000024,-0000002,+0000048,-0000103,+0004146,-0000728,+0000440,-0002329,15:04:24.151888
0.322662,+0000017,-0000024,-0000017,+0000051,-0000096,+0004141,-0000728,+0000440,-0002329,15:04:24.151888
0.322989,+0000025,-0000040,-0000013,+0000036,-0000104,+0004148,-0000714,+0000424,-0002336,15:04:24.151888
0.323322,+0000011,-0000029,-0000002,+0000014,-0000103,+0004161,-0000714,+0000424,-0002336,15:04:24.151888
0.323661,+0000000,-0000015,-0000016,+0000018,-0000079,+0004157,-0000714,+0000424,-0002336,15:04:24.151888
0.323988,+0000005,-0000016,-0000002,+0000047,-0000088,+0004143,-0000736,+0000418,-0002322,15:04:24.151888
0.324321,+0000009,-0000013,-0000005,+0000039,-0000083,+0004153,-0000736,+0000418,-0002322,15:04:24.151888
0.324660,+0000025,-0000045,-0000007,+0000032,-0000094,+0004145,-0000736,+0000418,-0002322,15:04:24.151888
0.324993,+0000030,-0000040,-0000021,+0000049,-0000086,+0004152,-0000744,+0000428,-0002310,15:04:24.151888
0.325320,-0000001,-0000016,+0000000,+0000049,-0000086,+0004127,-0000744,+0000428,-0002310,15:04:24.151888
0.325659,-0000004,+0000000,-0000007,+0000049,-0000069,+0004139,-0000744,+0000428,-0002310,15:04:24.151888
0.325986,+0000013,-0000020,+0000004,+0000046,-0000078,+0004136,-0000724,+0000432,-0002330,15:04:24.151888
0.326319,+0000013,-0000029,-0000013,+0000031,-0000122,+0004161,-0000724,+0000432,-0002330,15:04:24.151888
0.326658,+0000027,-0000040,-0000018,+0000040,-0000093,+0004159,-0000724,+0000432,-0002330,15:04:24.151888
0.326985,+0000016,-0000039,+0000004,+0000036,-0000088,+0004155,-0000730,+0000416,-0002336,15:04:24.151888
0.327318,+0000003,-0000023,-0000007,+0000036,-0000081,+0004153,-0000730,+0000416,-0002336,15:04:24.151888
0.327657,+0000013,-0000007,-0000008,+0000044,-0000085,+0004147,-0000730,+0000416,-0002336,15:04:24.151888
0.327984,+0000014,-0000020,+0000000,+0000054,-0000079,+0004154,-0000726,+0000430,-0002340,15:04:24.151888
0.328317,+0000022,-0000040,-0000008,+0000037,-0000085,+0004144,-0000726,+0000430,-0002340,15:04:24.151888
0.328650,+0000025,-0000029,-0000002,+0000044,-0000092,+0004160,-0000726,+0000430,-0002340,15:04:24.151888
0.328983,+0000006,-0000020,-0000008,+0000046,-0000093,+0004159,-0000734,+0000420,-0002315,15:04:24.151888
0.329316,-0000002,-0000021,-0000018,+0000043,-0000106,+0004156,-0000734,+0000420,-0002315,15:04:24.151888
0.329649,+0000005,-0000012,-0000008,+0000031,-0000080,+0004159,-0000734,+0000420,-0002315,15:04:24.151888
0.329982,+0000005,-0000015,-0000002,+0000049,-0000088,+0004154,-0000746,+0000420,-0002315,15:04:24.151888
0.330315,+0000014,-0000027,-0000008,+0000034,-0000087,+0004145,-0000746,+0000420,-0002315,15:04:24.151888
0.330648,+0000019,-0000039,-0000018,+0000023,-0000085,+0004150,-0000746,+0000420,-0002315,15:04:24.151888
0.330981,+0000024,-0000034,-0000010,+0000052,-0000090,+0004169,-0000738,+0000418,-0002321,15:04:24.151888
0.331314,+0000008,-0000023,-0000004,+0000050,-0000096,+0004138,-0000738,+0000418,-0002321,15:04:24.151888
0.331647,+0000009,-0000015,-0000013,+0000041,-0000099,+0004167,-0000738,+0000418,-0002321,15:04:24.151888
0.331980,+0000012,-0000010,+0000000,+0000042,-0000093,+0004135,-0000742,+0000412,-0002338,15:04:24.151888
0.332313,+0000016,-0000030,+0000006,+0000014,-0000084,+0004169,-0000742,+0000412,-0002338,15:04:24.151888
0.332646,+0000023,-0000035,-0000016,+0000047,-0000090,+0004145,-0000742,+0000412,-0002338,15:04:24.151888
0.332979,+0000012,-0000032,-0000005,+0000042,-0000075,+0004167,-0000750,+0000416,-0002320,15:04:24.151888
0.333312,+0000005,-0000021,-0000018,+0000057,-0000084,+0004125,-0000750,+0000416,-0002320,15:04:24.151888
0.333645,+0000011,-0000010,-0000002,+0000042,-0000092,+0004123,-0000750,+0000416,-0002320,15:04:24.151888
0.333978,+0000012,-0000015,+0000000,+0000047,-0000084,+0004159,-0000748,+0000430,-0002347,15:04:24.151888
0.334311,+0000007,-0000018,-0000006,+0000026,-0000088,+0004160,-0000748,+0000430,-0002347,15:04:24.151888
0.334644,+0000024,-0000039,-0000010,+0000037,-0000096,+0004161,-0000748,+0000430,-0002347,15:04:24.151888
0.334977,+0000005,-0000040,-0000013,+0000035,-0000084,+0004156,-0000744,+0000444,-0002314,15:04:24.151888
0.335310,+0000028,-0000018,-0000004,+0000037,-0000096,+0004163,-0000744,+0000444,-0002314,15:04:24.151888
0.335643,+0000006,-0000007,-0000002,+0000040,-0000086,+0004143,-0000744,+0000444,-0002314,15:04:24.151888
0.335976,+0000003,-0000019,-0000003,+0000029,-0000087,+0004170,-0000730,+0000430,-0002352,15:04:24.151888
0.336309,+0000019,-0000024,-0000012,+0000026,-0000088,+0004165,-0000730,+0000430,-0002352,15:04:24.151888
0.336642,+0000017,-0000034,-0000013,+0000038,-0000100,+0004146,-0000730,+0000430,-0002352,15:04:24.151888
0.336975,+0000008,-0000026,-0000015,+0000049,-0000081,+0004128,-0000754,+0000440,-0002338,15:04:24.152883
0.337308,+0000011,-0000032,-0000015,+0000042,-0000075,+0004159,-0000754,+0000440,-0002338,15:04:24.152883
0.337641,-0000005,-0000008,+0000006,+0000028,-0000087,+0004138,-0000754,+0000440,-0002338,15:04:24.152883
0.337974,+0000016,-0000014,-0000008,+0000040,-0000097,+0004131,-0000736,+0000446,-0002327,15:04:24.152883
0.338307,+0000019,-0000032,-0000008,+0000039,-0000090,+0004153,-0000736,+0000446,-0002327,15:04:24.152883
0.338640,+0000010,-0000032,-0000016,+0000041,-0000099,+0004135,-0000736,+0000446,-0002327,15:04:24.152883
0.338973,+0000025,-0000035,-0000013,+0000057,-0000090,+0004157,-0000734,+0000438,-0002320,15:04:24.152883
0.339306,+0000000,+0000006,-0000012,+0000039,-0000091,+0004151,-0000734,+0000438,-0002320,15:04:24.152883
0.339639,+0000017,-0000018,-0000015,+0000037,-0000090,+0004150,-0000734,+0000438,-0002320,15:04:24.152883
0.339972,+0000016,-0000015,-0000003,+0000041,-0000091,+0004169,-0000756,+0000410,-0002315,15:04:24.152883
0.340305,+0000006,-0000029,-0000013,+0000043,-0000080,+0004154,-0000756,+0000410,-0002315,15:04:24.152883
0.340638,+0000018,-0000047,-0000007,+0000040,-0000085,+0004158,-0000756,+0000410,-0002315,15:04:24.152883
0.340971,+0000022,-0000023,-0000015,+0000052,-0000078,+0004145,-0000740,+0000428,-0002313,15:04:24.152883
0.341304,-0000003,-0000003,-0000012,+0000031,-0000082,+0004149,-0000740,+0000428,-0002313,15:04:24.152883
0.341637,+0000011,-0000024,+0000003,+0000052,-0000099,+0004142,-0000740,+0000428,-0002313,15:04:24.152883
0.341970,+0000010,-0000034,-0000016,+0000056,-0000101,+0004167,-0000738,+0000426,-0002316,15:04:24.152883
0.342303,+0000033,-0000030,-0000013,+0000049,-0000083,+0004161,-0000738,+0000426,-0002316,15:04:24.155886
0.342638,+0000005,-0000021,+0000003,+0000034,-0000075,+0004164,-0000738,+0000426,-0002316,15:04:24.167005
0.342970,+0000011,-0000016,-0000019,+0000036,-0000078,+0004163,-0000744,+0000438,-0002329,15:04:24.167005
0.343304,+0000012,-0000016,-0000003,+0000042,-0000077,+0004152,-0000744,+0000438,-0002329,15:04:24.167005
0.343925,+0000025,-0000043,-0000018,+0000060,-0000068,+0004139,-0000744,+0000438,-0002329,15:04:24.167005
0.344130,+0000006,-0000015,+0000000,+0000041,-0000080,+0004139,-0000742,+0000406,-0002318,15:04:24.167005
0.344527,+0000011,-0000031,-0000007,+0000022,-0000107,+0004147,-0000742,+0000406,-0002318,15:04:24.167005
0.344723,+0000014,-0000017,-0000007,+0000022,-0000107,+0004147,-0000742,+0000406,-0002318,15:04:24.167005
0.345031,+0000013,-0000018,-0000011,+0000035,-0000087,+0004148,-0000732,+0000422,-0002306,15:04:24.167005
0.345309,+0000017,-0000026,-0000011,+0000017,-0000080,+0004141,-0000732,+0000422,-0002306,15:04:24.167005
0.345633,-0000001,-0000015,-0000011,+0000044,-0000095,+0004153,-0000732,+0000422,-0002306,15:04:24.167005
0.345970,+0000027,-0000044,-0000011,+0000025,-0000085,+0004148,-0000736,+0000426,-0002310,15:04:24.167005
0.346299,+0000002,-0000023,-0000013,+0000057,-0000085,+0004153,-0000736,+0000426,-0002310,15:04:24.167005
0.346632,+0000016,-0000020,-0000001,+0000029,-0000101,+0004149,-0000736,+0000426,-0002310,15:04:24.167005
0.346965,+0000020,-0000019,-0000016,+0000039,-0000087,+0004156,-0000726,+0000420,-0002308,15:04:24.167005
0.347298,-0000013,-0000012,-0000007,+0000043,-0000082,+0004134,-0000726,+0000420,-0002308,15:04:24.167005
0.347631,+0000017,-0000023,-0000002,+0000055,-0000088,+0004156,-0000726,+0000420,-0002308,15:04:24.167005
0.347964,+0000008,-0000032,-0000007,+0000044,-0000100,+0004155,-0000744,+0000412,-0002295,15:04:24.167005
0.348297,+0000019,-0000028,-0000018,+0000042,-0000092,+0004145,-0000744,+0000412,-0002295,15:04:24.167005
0.348630,+0000019,-0000031,-0000005,+0000040,-0000099,+0004142,-0000744,+0000412,-0002295,15:04:24.167005
0.348963,+0000010,-0000019,-0000014,+0000036,-0000072,+0004157,-0000736,+0000414,-0002312,15:04:24.167005
0.349296,+0000000,-0000011,-0000010,+0000032,-0000080,+0004158,-0000736,+0000414,-0002312,15:04:24.167005
0.349629,+0000008,-0000020,-0000014,+0000035,-0000076,+0004159,-0000736,+0000414,-0002312,15:04:24.167005
0.349962,+0000027,-0000034,-0000008,+0000021,-0000096,+0004144,-0000734,+0000428,-0002319,15:04:24.167005
0.350295,+0000011,-0000035,-0000005,+0000033,-0000075,+0004153,-0000734,+0000428,-0002319,15:04:24.167005
0.350629,+0000027,-0000034,-0000022,+0000029,-0000087,+0004152,-0000734,+0000428,-0002319,15:04:24.167005
0.350961,-0000001,-0000019,-0000010,+0000027,-0000088,+0004146,-0000746,+0000414,-0002331,15:04:24.167005
0.351294,+0000003,-0000008,+0000005,+0000036,-0000082,+0004149,-0000746,+0000414,-0002331,15:04:24.167005
0.351627,+0000003,-0000018,-0000013,+0000037,-0000093,+0004150,-0000746,+0000414,-0002331,15:04:24.168015
0.351960,+0000036,-0000040,-0000005,+0000054,-0000083,+0004143,-0000728,+0000424,-0002321,15:04:24.168015
0.352293,+0000007,-0000029,-0000005,+0000031,-0000095,+0004159,-0000728,+0000424,-0002321,15:04:24.168015
0.352626,+0000009,-0000029,-0000010,+0000037,-0000091,+0004141,-0000728,+0000424,-0002321,15:04:24.168015
0.352959,-0000012,-0000005,-0000004,+0000044,-0000096,+0004125,-0000732,+0000420,-0002298,15:04:24.168015
0.353292,+0000007,-0000016,-0000005,+0000040,-0000076,+0004168,-0000732,+0000420,-0002298,15:04:24.168015
0.353625,+0000022,-0000031,-0000008,+0000032,-0000085,+0004142,-0000732,+0000420,-0002298,15:04:24.168015
0.353958,+0000016,-0000031,-0000012,+0000043,-0000087,+0004146,-0000730,+0000420,-0002296,15:04:24.168015
0.354291,+0000022,-0000048,-0000016,+0000047,-0000096,+0004161,-0000730,+0000420,-0002296,15:04:24.168015
0.354624,+0000006,-0000026,-0000013,+0000026,-0000076,+0004170,-0000730,+0000420,-0002296,15:04:24.168015
0.354957,+0000010,-0000010,-0000008,+0000045,-0000085,+0004172,-0000730,+0000428,-0002319,15:04:24.168015
0.355290,+0000000,-0000010,+0000004,+0000043,-0000105,+0004160,-0000730,+0000428,-0002319,15:04:24.168015
0.355623,+0000017,-0000031,-0000013,+0000056,-0000101,+0004155,-0000730,+0000428,-0002319,15:04:24.168015
0.355956,+0000016,-0000029,-0000002,+0000034,-0000101,+0004156,-0000734,+0000410,-0002318,15:04:24.168015
0.356289,+0000019,-0000007,-0000003,+0000046,-0000089,+0004152,-0000734,+0000410,-0002318,15:04:24.168015
0.356622,+0000022,-0000037,-0000016,+0000031,-0000072,+0004167,-0000734,+0000410,-0002318,15:04:24.168015
0.356955,+0000008,-0000005,+0000001,+0000051,-0000084,+0004165,-0000734,+0000416,-0002325,15:04:24.168015
0.357288,+0000005,-0000013,-0000010,+0000017,-0000096,+0004161,-0000734,+0000416,-0002325,15:04:24.168015
0.357621,+0000031,-0000037,-0000007,+0000052,-0000093,+0004144,-0000734,+0000416,-0002325,15:04:24.168015
0.357954,+0000011,-0000032,-0000008,+0000021,-0000084,+0004145,-0000736,+0000434,-0002308,15:04:24.168015
0.358287,+0000019,-0000032,-0000013,+0000045,-0000093,+0004170,-0000736,+0000434,-0002308,15:04:24.168015
0.358620,+0000010,-0000026,-0000010,+0000032,-0000091,+0004159,-0000736,+0000434,-0002308,15:04:24.168015
0.358953,+0000008,-0000007,-0000008,+0000026,-0000093,+0004141,-0000744,+0000424,-0002323,15:04:24.168015
0.359286,+0000014,-0000032,-0000016,+0000037,-0000080,+0004152,-0000744,+0000424,-0002323,15:04:24.168015
0.359619,+0000010,-0000021,-0000011,+0000065,-0000086,+0004143,-0000744,+0000424,-0002323,15:04:24.168015
0.359952,+0000024,-0000047,-0000010,+0000056,-0000076,+0004146,-0000738,+0000420,-0002289,15:04:24.168015
0.360285,+0000025,-0000034,-0000021,+0000044,-0000104,+0004152,-0000738,+0000420,-0002289,15:04:24.168015
0.360618,+0000003,-0000010,-0000003,+0000033,-0000088,+0004150,-0000738,+0000420,-0002289,15:04:24.168015
0.360951,+0000008,-0000024,-0000013,+0000020,-0000092,+0004148,-0000746,+0000432,-0002330,15:04:24.168015
0.361284,-0000008,-0000005,+0000006,+0000032,-0000093,+0004158,-0000746,+0000432,-0002330,15:04:24.168015
0.361617,+0000011,-0000048,-0000019,+0000039,-0000084,+0004145,-0000746,+0000432,-0002330,15:04:24.168015
0.361985,+0000017,-0000036,+0000003,+0000046,-0000115,+0004160,-0000732,+0000418,-0002330,15:04:24.168015
0.362283,+0000021,-0000042,-0000029,+0000047,-0000086,+0004158,-0000732,+0000418,-0002330,15:04:24.168015
0.362616,+0000018,-0000026,+0000008,+0000037,-0000096,+0004153,-0000732,+0000418,-0002330,15:04:24.168015
0.362949,+0000003,-0000021,-0000016,+0000022,-0000088,+0004169,-0000736,+0000434,-0002328,15:04:24.168015
0.363282,+0000003,-0000028,+0000006,+0000013,-0000068,+0004149,-0000736,+0000434,-0002328,15:04:24.168015
0.363615,+0000038,-0000027,-0000018,+0000043,-0000094,+0004133,-0000736,+0000434,-0002328,15:04:24.168015
0.363948,+0000016,-0000046,-0000008,+0000035,-0000093,+0004140,-0000718,+0000424,-0002313,15:04:24.168015
0.364281,+0000025,-0000018,-0000008,+0000038,-0000091,+0004160,-0000718,+0000424,-0002313,15:04:24.168015
0.364614,+0000000,-0000027,-0000005,+0000048,-0000080,+0004152,-0000718,+0000424,-0002313,15:04:24.168015
0.364947,-0000011,-0000010,-0000005,+0000026,-0000074,+0004146,-0000722,+0000416,-0002318,15:04:24.168015
0.365280,+0000020,-0000021,+0000000,+0000037,-0000076,+0004163,-0000722,+0000416,-0002318,15:04:24.168015
0.365613,+0000011,-0000027,-0000008,+0000043,-0000086,+0004151,-0000722,+0000416,-0002318,15:04:24.168015
0.365946,+0000029,-0000048,-0000011,+0000046,-0000065,+0004131,-0000732,+0000438,-0002304,15:04:24.168015
0.366279,+0000008,-0000021,-0000019,+0000036,-0000084,+0004147,-0000732,+0000438,-0002304,15:04:24.168015
0.366612,-0000003,+0000009,-0000010,+0000040,-0000096,+0004152,-0000732,+0000438,-0002304,15:04:24.168015
0.366945,+0000020,-0000024,-0000005,+0000047,-0000077,+0004154,-0000738,+0000428,-0002292,15:04:24.168015
0.367278,+0000013,-0000012,-0000007,+0000012,-0000088,+0004161,-0000738,+0000428,-0002292,15:04:24.169015
0.367611,+0000027,-0000035,-0000007,+0000030,-0000058,+0004141,-0000738,+0000428,-0002292,15:04:24.169015
0.367944,+0000035,-0000032,-0000011,+0000045,-0000074,+0004150,-0000718,+0000418,-0002073,15:04:24.169015
0.368277,+0000019,-0000016,+0000001,+0000046,-0000089,+0004157,-0000718,+0000418,-0002073,15:04:24.169015
0.368610,+0000007,-0000014,-0000007,+0000038,-0000081,+0004160,-0000718,+0000418,-0002073,15:04:24.169015
0.368943,+0000013,-0000015,-0000011,+0000053,-0000077,+0004147,-0000720,+0000414,-0002329,15:04:24.169015
0.369276,+0000006,-0000024,+0000003,+0000057,-0000075,+0004145,-0000720,+0000414,-0002329,15:04:24.169015
0.369609,+0000030,-0000046,-0000010,+0000041,-0000090,+0004173,-0000720,+0000414,-0002329,15:04:24.169015
0.369942,+0000017,-0000013,+0000000,+0000031,-0000089,+0004139,-0000728,+0000408,-0002316,15:04:24.169015
0.370275,+0000009,-0000011,-0000004,+0000035,-0000084,+0004168,-0000728,+0000408,-0002316,15:04:24.169015
0.370608,+0000011,-0000026,-0000016,+0000040,-0000093,+0004164,-0000728,+0000408,-0002316,15:04:24.169015
0.370941,+0000008,-0000003,-0000007,+0000048,-0000076,+0004143,-0000738,+0000408,-0002312,15:04:24.169015
0.371274,+0000003,-0000031,-0000007,+0000025,-0000091,+0004145,-0000738,+0000408,-0002312,15:04:24.169015
0.371607,+0000028,-0000031,-0000011,+0000040,-0000078,+0004171,-0000738,+0000408,-0002312,15:04:24.169015
0.371940,+0000022,-0000030,-0000013,+0000028,-0000086,+0004185,-0000740,+0000422,-0002314,15:04:24.169015
0.372273,+0000003,-0000019,-0000010,+0000038,-0000091,+0004141,-0000740,+0000422,-0002314,15:04:24.169015
0.372606,+0000005,-0000007,-0000012,+0000034,-0000074,+0004159,-0000740,+0000422,-0002314,15:04:24.169015
0.372939,+0000006,-0000024,-0000005,+0000021,-0000087,+0004140,-0000730,+0000408,-0002340,15:04:24.169015
0.373272,+0000017,-0000027,-0000019,+0000018,-0000090,+0004159,-0000730,+0000408,-0002340,15:04:24.169015
0.373605,+0000028,-0000029,-0000011,+0000024,-0000078,+0004146,-0000730,+0000408,-0002340,15:04:24.169015
0.373945,+0000008,-0000039,+0000001,+0000015,-0000093,+0004167,-0000728,+0000412,-0002311,15:04:24.169015
0.374278,+0000019,-0000021,-0000008,+0000037,-0000083,+0004153,-0000728,+0000412,-0002311,15:04:24.169015
0.374604,+0000008,-0000013,-0000008,+0000058,-0000072,+0004156,-0000728,+0000412,-0002311,15:04:24.169015
0.374937,+0000011,-0000031,-0000011,+0000037,-0000092,+0004163,-0000742,+0000426,-0002319,15:04:24.169015
0.375298,+0000010,-0000026,-0000008,+0000045,-0000079,+0004154,-0000742,+0000426,-0002319,15:04:24.169015
0.375603,+0000009,-0000037,-0000011,+0000028,-0000107,+0004150,-0000742,+0000426,-0002319,15:04:24.169015
0.376194,+0000018,-0000027,-0000008,+0000022,-0000108,+0004141,-0000748,+0000422,-0002311,15:04:24.169015
0.376491,+0000006,-0000005,-0000010,+0000045,-0000105,+0004158,-0000748,+0000422,-0002311,15:04:24.169015
0.376633,+0000006,-0000006,+0000001,+0000073,-0000097,+0004147,-0000748,+0000422,-0002311,15:04:24.169015
0.376935,-0000003,-0000007,-0000007,+0000037,-0000098,+0004135,-0000744,+0000424,-0002314,15:04:24.169015
0.377280,+0000011,-0000021,-0000003,+0000037,-0000104,+0004154,-0000744,+0000424,-0002314,15:04:24.169015
