===BEGIN_METADATA===
"This CSV contains gyroscope, accelerometer, and magnetometer data synced with the test named below."
Test Name: 2026-07-07_150336_01,yyyy-mm-dd_hhmmss_{probe#/nano_id}
Calibrations: (not implemented yet)
===END_METADATA===
===BEGIN_DATA===
Time (sec),Gyro X,Gyro Y,Gyro Z,Accel X,Accel Y,Accel Z,Mag X,Mag Y,Mag Z,Processed_Time
0.000313,-0000006,-0000002,+0000001,+0000035,-0000070,+0004147,-0000634,+0000254,-0002232,15:03:37.360361
0.000655,+0000013,-0000002,+0000001,+0000037,-0000083,+0004142,-0000634,+0000254,-0002232,15:03:37.360361
0.000978,-0000001,-0000012,-0000008,+0000025,-0000082,+0004160,-0000730,+0000410,-0002321,15:03:37.361363
0.001311,+0000006,-0000016,+0000000,+0000060,-0000080,+0004163,-0000730,+0000410,-0002321,15:03:37.361363
0.001644,+0000019,-0000050,-0000023,+0000046,-0000060,+0004132,-0000730,+0000410,-0002321,15:03:37.361363
0.001977,+0000031,-0000032,-0000004,+0000044,-0000081,+0004143,-0000730,+0000400,-0002341,15:03:37.361363
0.002319,+0000003,-0000038,-0000011,+0000034,-0000063,+0004145,-0000730,+0000400,-0002341,15:03:37.391550
0.002643,+0000015,-0000022,-0000004,+0000042,-0000074,+0004133,-0000730,+0000400,-0002341,15:03:37.391550
0.002976,+0000007,-0000008,-0000008,+0000050,-0000086,+0004149,-0000730,+0000424,-0002320,15:03:37.391550
0.003309,+0000014,-0000029,+0000000,+0000048,-0000089,+0004143,-0000730,+0000424,-0002320,15:03:37.391550
0.003642,+0000016,-0000034,-0000002,+0000054,-0000105,+0004140,-0000730,+0000424,-0002320,15:03:37.402550
0.003975,+0000024,-0000048,-0000026,+0000037,-0000100,+0004154,-0000706,+0000404,-0002341,15:03:37.402550
0.004308,+0000011,-0000028,+0000003,+0000033,-0000104,+0004149,-0000706,+0000404,-0002341,15:03:37.402550
0.004698,-0000005,-0000008,+0000001,+0000025,-0000086,+0004147,-0000706,+0000404,-0002341,15:03:37.402550
0.004974,+0000011,-0000018,-0000007,+0000054,-0000080,+0004147,-0000720,+0000404,-0002325,15:03:37.402550
0.005307,+0000025,-0000032,-0000005,+0000054,-0000103,+0004142,-0000720,+0000404,-0002325,15:03:37.402550
0.005640,+0000020,-0000045,-0000010,+0000043,-0000082,+0004152,-0000720,+0000404,-0002325,15:03:37.402550
0.005973,+0000021,-0000030,-0000010,+0000054,-0000090,+0004140,-0000722,+0000412,-0002335,15:03:37.402550
0.006306,+0000008,-0000010,-0000008,+0000060,-0000106,+0004152,-0000722,+0000412,-0002335,15:03:37.409555
0.006639,+0000017,-0000028,-0000019,+0000052,-0000080,+0004169,-0000722,+0000412,-0002335,15:03:37.414939
0.006972,-0000002,-0000012,-0000005,+0000036,-0000081,+0004149,-0000714,+0000398,-0002291,15:03:37.414939
0.007305,+0000008,-0000012,+0000003,+0000035,-0000094,+0004150,-0000714,+0000398,-0002291,15:03:37.416940
0.007638,+0000032,-0000040,-0000019,+0000039,-0000100,+0004159,-0000714,+0000398,-0002291,15:03:37.416940
0.007971,+0000021,-0000019,+0000006,+0000048,-0000094,+0004131,-0000714,+0000412,-0002322,15:03:37.416940
0.008304,+0000007,-0000010,-0000005,+0000048,-0000088,+0004143,-0000714,+0000412,-0002322,15:03:37.416940
0.008637,+0000009,-0000013,+0000000,+0000045,-0000094,+0004138,-0000714,+0000412,-0002322,15:03:37.416940
0.008970,+0000000,-0000028,-0000019,+0000032,-0000092,+0004151,-0000720,+0000406,-0002313,15:03:37.416940
0.009303,+0000007,-0000020,+0000001,+0000044,-0000093,+0004153,-0000720,+0000406,-0002313,15:03:37.416940
0.009636,+0000029,-0000040,-0000016,+0000050,-0000081,+0004151,-0000720,+0000406,-0002313,15:03:37.416940
0.009972,+0000015,-0000026,+0000001,+0000050,-0000090,+0004145,-0000718,+0000418,-0002312,15:03:37.416940
0.010305,+0000019,-0000021,-0000013,+0000038,-0000112,+0004154,-0000718,+0000418,-0002312,15:03:37.416940
0.010641,+0000019,-0000021,-0000005,+0000037,-0000080,+0004155,-0000718,+0000418,-0002312,15:03:37.416940
0.011184,+0000016,-0000018,-0000013,+0000045,-0000072,+0004161,-0000712,+0000410,-0002320,15:03:37.416940
0.011457,+0000006,-0000013,-0000008,+0000037,-0000101,+0004150,-0000712,+0000410,-0002320,15:03:37.416940
0.011635,+0000002,-0000008,-0000002,+0000047,-0000092,+0004143,-0000712,+0000410,-0002320,15:03:37.416940
0.011970,+0000017,-0000024,-0000018,+0000049,-0000071,+0004151,-0000718,+0000420,-0002319,15:03:37.416940
0.012300,+0000005,-0000014,-0000005,+0000027,-0000101,+0004152,-0000718,+0000420,-0002319,15:03:37.416940
0.012633,+0000010,-0000018,-0000013,+0000044,-0000070,+0004170,-0000718,+0000420,-0002319,15:03:37.416940
0.012966,+0000005,-0000011,+0000004,+0000043,-0000064,+0004170,-0000718,+0000430,-0002328,15:03:37.416940
0.013299,+0000008,-0000016,+0000004,+0000028,-0000090,+0004155,-0000718,+0000430,-0002328,15:03:37.416940
0.013633,+0000021,-0000027,-0000014,+0000043,-0000099,+0004175,-0000718,+0000430,-0002328,15:03:37.416940
0.013967,+0000017,-0000032,-0000010,+0000060,-0000090,+0004171,-0000708,+0000414,-0002316,15:03:37.420938
0.014299,+0000002,-0000026,-0000005,+0000040,-0000088,+0004147,-0000708,+0000414,-0002316,15:03:37.420938
0.014631,+0000008,-0000016,-0000013,+0000037,-0000062,+0004144,-0000708,+0000414,-0002316,15:03:37.428465
0.014965,+0000016,-0000024,-0000007,+0000040,-0000084,+0004158,-0000718,+0000416,-0002331,15:03:37.428465
0.015300,+0000011,-0000023,-0000001,+0000047,-0000096,+0004147,-0000718,+0000416,-0002331,15:03:37.428465
0.015632,+0000027,-0000036,-0000011,+0000055,-0000096,+0004144,-0000718,+0000416,-0002331,15:03:37.428465
0.015963,+0000019,-0000034,-0000013,+0000057,-0000098,+0004160,-0000726,+0000404,-0002303,15:03:37.428465
0.016296,+0000006,+0000003,-0000003,+0000044,-0000081,+0004149,-0000726,+0000404,-0002303,15:03:37.428465
0.016629,+0000012,-0000015,-0000010,+0000056,-0000101,+0004176,-0000726,+0000404,-0002303,15:03:37.428465
0.016962,+0000016,-0000025,-0000004,+0000035,-0000076,+0004149,-0000722,+0000396,-0002307,15:03:37.428465
0.017295,+0000013,-0000031,-0000002,+0000030,-0000101,+0004154,-0000722,+0000396,-0002307,15:03:37.429464
0.017628,+0000033,-0000047,-0000016,+0000038,-0000089,+0004167,-0000722,+0000396,-0002307,15:03:37.429464
0.017961,+0000017,-0000021,-0000011,+0000042,-0000070,+0004150,-0000722,+0000414,-0002327,15:03:37.429464
0.018294,-0000008,-0000012,-0000003,+0000041,-0000081,+0004159,-0000722,+0000414,-0002327,15:03:37.429464
0.018627,+0000006,-0000018,-0000002,+0000052,-0000089,+0004152,-0000722,+0000414,-0002327,15:03:37.429464
0.018960,+0000023,-0000021,+0000001,+0000054,-0000072,+0004153,-0000726,+0000408,-0002288,15:03:37.429464
0.019293,+0000009,-0000034,-0000013,+0000031,-0000086,+0004180,-0000726,+0000408,-0002288,15:03:37.429464
0.019626,+0000024,-0000043,-0000007,+0000029,-0000079,+0004136,-0000726,+0000408,-0002288,15:03:37.429464
0.019959,-0000003,-0000010,+0000006,+0000047,-0000085,+0004165,-0000740,+0000412,-0002324,15:03:37.429464
0.020292,+0000013,-0000024,-0000019,+0000041,-0000093,+0004152,-0000740,+0000412,-0002324,15:03:37.429464
0.020625,+0000008,-0000026,+0000000,+0000050,-0000107,+0004157,-0000740,+0000412,-0002324,15:03:37.429464
0.020958,+0000017,-0000015,-0000008,+0000060,-0000087,+0004149,-0000738,+0000404,-0002322,15:03:37.429464
0.021291,+0000027,-0000044,-0000011,+0000038,-0000078,+0004150,-0000738,+0000404,-0002322,15:03:37.429464
0.021624,+0000019,-0000015,-0000002,+0000038,-0000081,+0004127,-0000738,+0000404,-0002322,15:03:37.429464
0.021957,+0000017,-0000018,-0000008,+0000055,-0000074,+0004134,-0000722,+0000424,-0002317,15:03:37.429464
0.022290,+0000011,-0000023,-0000013,+0000036,-0000098,+0004157,-0000722,+0000424,-0002317,15:03:37.429464
0.022623,+0000003,-0000007,+0000001,+0000046,-0000077,+0004154,-0000722,+0000424,-0002317,15:03:37.429464
0.022956,+0000014,-0000026,-0000022,+0000037,-0000086,+0004144,-0000728,+0000404,-0002312,15:03:37.429464
0.023289,+0000008,-0000056,-0000019,+0000036,-0000084,+0004142,-0000728,+0000404,-0002312,15:03:37.429464
0.023622,+0000002,-0000013,+0000009,+0000044,-0000081,+0004172,-0000728,+0000404,-0002312,15:03:37.429464
0.023955,+0000013,-0000016,-0000010,+0000051,-0000094,+0004151,-0000712,+0000418,-0002310,15:03:37.429464
0.024289,+0000000,-0000018,-0000015,+0000033,-0000089,+0004160,-0000712,+0000418,-0002310,15:03:37.429464
0.024621,+0000028,-0000019,+0000000,+0000039,-0000086,+0004136,-0000712,+0000418,-0002310,15:03:37.429464
0.024954,+0000006,-0000023,-0000011,+0000037,-0000076,+0004142,-0000724,+0000414,-0002308,15:03:37.430466
0.025289,+0000014,-0000024,-0000008,+0000031,-0000086,+0004134,-0000724,+0000414,-0002308,15:03:37.430466
0.025620,+0000027,-0000031,-0000008,+0000039,-0000075,+0004158,-0000724,+0000414,-0002308,15:03:37.432462
0.025953,+0000003,-0000031,-0000003,+0000045,-0000072,+0004152,-0000712,+0000414,-0002307,15:03:37.432462
0.026289,+0000011,-0000008,-0000004,+0000048,-0000092,+0004163,-0000712,+0000414,-0002307,15:03:37.432462
0.027043,+0000024,-0000024,-0000010,+0000032,-0000078,+0004163,-0000712,+0000414,-0002307,15:03:37.432462
0.027291,+0000006,-0000015,-0000008,+0000047,-0000101,+0004158,-0000722,+0000410,-0002309,15:03:37.432462
0.027618,+0000008,-0000019,-0000010,+0000037,-0000101,+0004136,-0000722,+0000410,-0002309,15:03:37.432462
0.027951,+0000008,-0000021,-0000002,+0000043,-0000094,+0004137,-0000722,+0000410,-0002309,15:03:37.432462
0.028289,+0000017,-0000007,-0000005,+0000041,-0000066,+0004152,-0000734,+0000402,-0002321,15:03:37.432462
0.028617,+0000011,-0000019,-0000003,+0000045,-0000074,+0004153,-0000734,+0000402,-0002321,15:03:37.432462
0.028950,+0000008,-0000034,-0000005,+0000042,-0000072,+0004164,-0000734,+0000402,-0002321,15:03:37.432462
0.029288,+0000028,-0000037,-0000013,+0000053,-0000094,+0004158,-0000742,+0000412,-0002329,15:03:37.432462
0.029616,+0000014,-0000031,-0000003,+0000037,-0000074,+0004149,-0000742,+0000412,-0002329,15:03:37.432462
0.029949,+0000003,-0000010,-0000019,+0000027,-0000072,+0004137,-0000742,+0000412,-0002329,15:03:37.432462
0.030287,+0000006,-0000008,-0000013,+0000026,-0000100,+0004161,-0000722,+0000404,-0002323,15:03:37.432462
0.030615,+0000014,-0000022,-0000005,+0000036,-0000093,+0004164,-0000722,+0000404,-0002323,15:03:37.432462
0.030948,+0000016,-0000044,-0000008,+0000051,-0000085,+0004144,-0000722,+0000404,-0002323,15:03:37.432462
0.031286,+0000014,-0000024,-0000011,+0000033,-0000097,+0004137,-0000738,+0000420,-0002308,15:03:37.432462
0.031614,+0000025,-0000037,-0000010,+0000035,-0000085,+0004155,-0000738,+0000420,-0002308,15:03:37.432462
0.031947,+0000003,-0000008,-0000003,+0000049,-0000090,+0004152,-0000738,+0000420,-0002308,15:03:37.432462
0.032285,+0000003,-0000005,-0000015,+0000024,-0000095,+0004142,-0000722,+0000418,-0002309,15:03:37.432462
0.032613,+0000018,-0000031,+0000005,+0000032,-0000086,+0004147,-0000722,+0000418,-0002309,15:03:37.432462
0.032946,+0000021,-0000027,-0000010,+0000041,-0000073,+0004159,-0000722,+0000418,-0002309,15:03:37.432462
0.033282,+0000019,-0000040,-0000006,+0000039,-0000078,+0004155,-0000720,+0000420,-0002315,15:03:37.433469
0.033612,-0000007,-0000018,-0000001,+0000046,-0000091,+0004140,-0000720,+0000420,-0002315,15:03:37.433469
0.033945,+0000013,-0000015,-0000016,+0000037,-0000085,+0004151,-0000720,+0000420,-0002315,15:03:37.433469
0.034282,+0000005,-0000018,+0000000,+0000051,-0000072,+0004156,-0000708,+0000406,-0002325,15:03:37.433469
0.034611,+0000019,-0000028,-0000013,+0000040,-0000095,+0004157,-0000708,+0000406,-0002325,15:03:37.433469
0.034944,+0000024,-0000042,-0000002,+0000034,-0000095,+0004148,-0000708,+0000406,-0002325,15:03:37.433469
0.035281,+0000021,-0000027,+0000000,+0000034,-0000080,+0004156,-0000720,+0000408,-0002304,15:03:37.433469
0.035610,+0000002,-0000004,-0000007,+0000045,-0000074,+0004159,-0000720,+0000408,-0002304,15:03:37.433469
0.035943,+0000010,-0000016,-0000019,+0000050,-0000075,+0004136,-0000720,+0000408,-0002304,15:03:37.433469
0.036281,+0000005,-0000010,+0000005,+0000041,-0000081,+0004141,-0000720,+0000416,-0002314,15:03:37.433469
0.036609,+0000025,-0000040,-0000027,+0000036,-0000099,+0004134,-0000720,+0000416,-0002314,15:03:37.433469
0.036942,+0000017,-0000042,-0000005,+0000040,-0000098,+0004145,-0000720,+0000416,-0002314,15:03:37.433469
0.037279,+0000006,-0000032,-0000016,+0000053,-0000090,+0004139,-0000722,+0000408,-0002319,15:03:37.433469
0.037608,+0000025,-0000030,-0000019,+0000042,-0000105,+0004150,-0000722,+0000408,-0002319,15:03:37.433469
0.037941,-0000014,-0000003,+0000003,+0000050,-0000084,+0004132,-0000722,+0000408,-0002319,15:03:37.433469
0.038278,+0000013,-0000021,-0000011,+0000044,-0000095,+0004156,-0000708,+0000408,-0002317,15:03:37.433469
0.038607,+0000016,-0000027,+0000001,+0000036,-0000082,+0004147,-0000708,+0000408,-0002317,15:03:37.433469
0.038940,+0000024,-0000043,-0000008,+0000055,-0000071,+0004133,-0000708,+0000408,-0002317,15:03:37.433469
0.039273,+0000022,-0000028,-0000013,+0000042,-0000079,+0004153,-0000742,+0000404,-0002324,15:03:37.433469
0.039606,+0000005,-0000021,-0000008,+0000039,-0000065,+0004172,-0000742,+0000404,-0002324,15:03:37.433469
0.039939,+0000016,-0000018,-0000015,+0000042,-0000067,+0004139,-0000742,+0000404,-0002324,15:03:37.433469
0.040273,+0000006,-0000007,+0000011,+0000062,-0000095,+0004160,-0000718,+0000416,-0002321,15:03:37.433469
0.040605,+0000014,-0000037,-0000011,+0000048,-0000086,+0004162,-0000718,+0000416,-0002321,15:03:37.433469
0.040938,+0000027,-0000032,-0000010,+0000052,-0000085,+0004147,-0000718,+0000416,-0002321,15:03:37.433469
0.041273,+0000010,-0000024,-0000021,+0000024,-0000082,+0004150,-0000716,+0000418,-0002309,15:03:37.433469
0.041607,+0000005,-0000026,-0000007,+0000049,-0000088,+0004158,-0000716,+0000418,-0002309,15:03:37.433469
0.041938,+0000014,-0000010,+0000000,+0000035,-0000073,+0004152,-0000716,+0000418,-0002309,15:03:37.433469
0.042275,+0000020,-0000016,-0000005,+0000035,-0000090,+0004137,-0000710,+0000418,-0002310,15:03:37.434463
0.042613,+0000025,-0000018,-0000011,+0000023,-0000083,+0004158,-0000710,+0000418,-0002310,15:03:37.434463
0.043087,+0000006,-0000016,+0000001,+0000017,-0000108,+0004146,-0000710,+0000418,-0002310,15:03:37.434463
0.043293,+0000006,-0000016,+0000001,+0000017,-0000108,+0004144,-0000730,+0000412,-0002318,15:03:37.434463
0.043641,-0000009,-0000016,-0000002,+0000052,-0000094,+0004143,-0000730,+0000412,-0002318,15:03:37.435470
0.043939,+0000012,-0000030,-0000005,+0000042,-0000106,+0004151,-0000730,+0000412,-0002318,15:03:37.435470
0.044274,+0000023,-0000029,-0000011,+0000044,-0000090,+0004159,-0000718,+0000416,-0002319,15:03:37.435470
0.044601,+0000030,-0000042,-0000015,+0000032,-0000066,+0004168,-0000718,+0000416,-0002319,15:03:37.435470
0.044934,+0000003,-0000019,-0000018,+0000024,-0000090,+0004140,-0000718,+0000416,-0002319,15:03:37.435470
0.045272,+0000013,-0000031,-0000012,+0000040,-0000068,+0004155,-0000724,+0000416,-0002331,15:03:37.435470
0.045600,-0000008,+0000009,+0000011,+0000021,-0000084,+0004156,-0000724,+0000416,-0002331,15:03:37.435470
0.045933,+0000016,-0000013,-0000013,+0000041,-0000078,+0004188,-0000724,+0000416,-0002331,15:03:37.435470
0.046279,+0000019,-0000032,-0000013,+0000051,-0000084,+0004173,-0000728,+0000406,-0002314,15:03:37.435470
0.046599,+0000011,-0000040,-0000005,+0000053,-0000082,+0004162,-0000728,+0000406,-0002314,15:03:37.435470
0.046954,+0000005,-0000019,-0000004,+0000037,-0000089,+0004161,-0000728,+0000406,-0002314,15:03:37.435470
0.047278,+0000010,-0000027,+0000003,+0000041,-0000083,+0004163,-0000720,+0000416,-0002320,15:03:37.435470
0.047598,+0000008,-0000012,-0000007,+0000024,-0000086,+0004151,-0000720,+0000416,-0002320,15:03:37.435470
0.047931,+0000017,-0000029,-0000018,+0000056,-0000098,+0004154,-0000720,+0000416,-0002320,15:03:37.435470
0.048277,+0000022,-0000018,-0000003,+0000035,-0000079,+0004159,-0000724,+0000412,-0002321,15:03:37.435470
0.048597,+0000011,-0000032,-0000013,+0000025,-0000106,+0004157,-0000724,+0000412,-0002321,15:03:37.435470
0.048930,+0000018,-0000023,-0000013,+0000029,-0000087,+0004164,-0000724,+0000412,-0002321,15:03:37.435470
0.049275,-0000003,-0000016,-0000005,+0000019,-0000094,+0004160,-0000722,+0000424,-0002291,15:03:37.435470
0.049596,+0000024,-0000023,-0000016,+0000062,-0000089,+0004157,-0000722,+0000424,-0002291,15:03:37.435470
0.049929,-0000006,-0000024,-0000003,+0000045,-0000088,+0004158,-0000722,+0000424,-0002291,15:03:37.435470
0.050262,+0000017,-0000026,-0000003,+0000034,-0000077,+0004160,-0000732,+0000416,-0002315,15:03:37.435470
0.050595,+0000027,-0000036,-0000008,+0000036,-0000088,+0004166,-0000732,+0000416,-0002315,15:03:37.435470
0.050928,+0000013,-0000042,-0000016,+0000037,-0000085,+0004159,-0000732,+0000416,-0002315,15:03:37.435470
0.051261,+0000020,-0000023,-0000011,+0000036,-0000113,+0004150,-0000732,+0000410,-0002306,15:03:37.436464
0.051594,+0000003,-0000005,+0000003,+0000037,-0000085,+0004156,-0000732,+0000410,-0002306,15:03:37.436464
0.051927,+0000017,-0000016,-0000005,+0000053,-0000088,+0004145,-0000732,+0000410,-0002306,15:03:37.436464
0.052260,+0000014,-0000028,-0000005,+0000029,-0000079,+0004147,-0000716,+0000398,-0002324,15:03:37.436464
0.052593,+0000032,-0000035,-0000021,+0000029,-0000063,+0004151,-0000716,+0000398,-0002324,15:03:37.436464
0.052926,+0000014,-0000032,+0000006,+0000055,-0000083,+0004155,-0000716,+0000398,-0002324,15:03:37.436464
0.053259,+0000021,-0000021,-0000011,+0000061,-0000095,+0004148,-0000738,+0000412,-0002293,15:03:37.436464
0.053592,+0000006,-0000013,-0000013,+0000049,-0000105,+0004143,-0000738,+0000412,-0002293,15:03:37.436464
0.053925,+0000019,-0000027,+0000000,+0000026,-0000074,+0004147,-0000738,+0000412,-0002293,15:03:37.436464
0.054258,+0000025,-0000042,-0000024,+0000040,-0000072,+0004155,-0000722,+0000408,-0002315,15:03:37.436464
0.054591,+0000013,-0000024,-0000005,+0000038,-0000106,+0004175,-0000722,+0000408,-0002315,15:03:37.436464
0.054924,+0000011,-0000039,-0000013,+0000041,-0000101,+0004160,-0000722,+0000408,-0002315,15:03:37.436464
0.055257,+0000010,-0000010,-0000011,+0000038,-0000082,+0004143,-0000734,+0000418,-0002321,15:03:37.436464
0.055590,+0000011,-0000020,-0000013,+0000011,-0000086,+0004154,-0000734,+0000418,-0002321,15:03:37.436464
0.055923,+0000005,-0000017,-0000007,+0000025,-0000090,+0004141,-0000734,+0000418,-0002321,15:03:37.436464
0.056256,+0000027,-0000024,-0000008,+0000047,-0000097,+0004138,-0000716,+0000412,-0002331,15:03:37.436464
0.056589,+0000028,-0000034,-0000010,+0000059,-0000091,+0004154,-0000716,+0000412,-0002331,15:03:37.436464
0.056922,+0000017,-0000032,-0000010,+0000030,-0000086,+0004169,-0000716,+0000412,-0002331,15:03:37.436464
0.057255,+0000014,-0000025,-0000008,+0000033,-0000090,+0004163,-0000738,+0000408,-0002306,15:03:37.436464
0.057588,-0000012,-0000004,+0000005,+0000023,-0000086,+0004167,-0000738,+0000408,-0002306,15:03:37.436464
0.057921,+0000025,-0000023,-0000007,+0000036,-0000091,+0004164,-0000738,+0000408,-0002306,15:03:37.436464
0.058254,+0000000,-0000027,-0000014,+0000041,-0000082,+0004185,-0000732,+0000418,-0002311,15:03:37.436464
0.058587,+0000041,-0000047,-0000016,+0000025,-0000089,+0004151,-0000732,+0000418,-0002311,15:03:37.436464
0.058920,+0000001,-0000020,-0000016,+0000039,-0000087,+0004147,-0000732,+0000418,-0002311,15:03:37.436464
0.059272,+0000005,+0000009,+0000000,+0000067,-0000089,+0004156,-0000726,+0000426,-0002306,15:03:37.436464
0.059586,+0000006,-0000018,-0000008,+0000043,-0000072,+0004140,-0000726,+0000426,-0002306,15:03:37.436464
0.059919,+0000033,-0000045,-0000010,+0000044,-0000077,+0004150,-0000726,+0000426,-0002306,15:03:37.436464
0.060252,+0000014,-0000027,-0000008,+0000047,-0000090,+0004153,-0000718,+0000412,-0002314,15:03:37.436464
0.060585,+0000022,-0000034,+0000001,+0000045,-0000077,+0004160,-0000718,+0000412,-0002314,15:03:37.436464
0.060918,+0000017,-0000005,-0000015,+0000043,-0000067,+0004139,-0000718,+0000412,-0002314,15:03:37.436464
0.061251,+0000002,-0000021,-0000008,+0000038,-0000072,+0004163,-0000728,+0000412,-0002308,15:03:37.436464
0.061584,+0000014,-0000021,+0000003,+0000038,-0000088,+0004154,-0000728,+0000412,-0002308,15:03:37.436464
0.061917,+0000024,-0000026,-0000019,+0000050,-0000082,+0004145,-0000728,+0000412,-0002308,15:03:37.436464
0.062250,+0000010,-0000032,-0000013,+0000030,-0000093,+0004145,-0000716,+0000416,-0002318,15:03:37.436464
0.062583,+0000030,-0000024,-0000011,+0000042,-0000091,+0004147,-0000716,+0000416,-0002318,15:03:37.436464
0.062916,+0000008,-0000026,-0000007,+0000042,-0000096,+0004131,-0000716,+0000416,-0002318,15:03:37.437465
0.063249,+0000008,-0000016,-0000006,+0000037,-0000091,+0004142,-0000722,+0000414,-0002314,15:03:37.437465
0.063582,+0000009,-0000013,-0000005,+0000049,-0000083,+0004150,-0000722,+0000414,-0002314,15:03:37.437465
0.063915,+0000014,-0000039,-0000003,+0000053,-0000083,+0004150,-0000722,+0000414,-0002314,15:03:37.437465
0.064248,+0000030,-0000029,-0000010,+0000036,-0000071,+0004151,-0000728,+0000418,-0002304,15:03:37.437465
0.064581,+0000027,-0000027,-0000013,+0000056,-0000087,+0004155,-0000728,+0000418,-0002304,15:03:37.437465
0.064914,+0000007,-0000021,-0000005,+0000049,-0000092,+0004139,-0000728,+0000418,-0002304,15:03:37.437465
0.065247,-0000003,-0000013,-0000013,+0000050,-0000088,+0004146,-0000724,+0000404,-0002325,15:03:37.437465
0.065580,+0000014,-0000014,-0000008,+0000038,-0000060,+0004149,-0000724,+0000404,-0002325,15:03:37.437465
0.065913,+0000011,-0000016,+0000000,+0000045,-0000089,+0004148,-0000724,+0000404,-0002325,15:03:37.437465
0.066246,+0000002,-0000024,-0000018,+0000041,-0000075,+0004150,-0000724,+0000404,-0002308,15:03:37.437465
0.066579,+0000027,-0000036,-0000010,+0000050,-0000089,+0004155,-0000724,+0000404,-0002308,15:03:37.437465
0.066912,+0000002,-0000020,-0000008,+0000038,-0000076,+0004136,-0000724,+0000404,-0002308,15:03:37.437465
0.067245,+0000005,-0000010,-0000007,+0000041,-0000070,+0004136,-0000728,+0000404,-0002308,15:03:37.438462
0.067578,+0000008,-0000023,+0000001,+0000043,-0000080,+0004158,-0000728,+0000404,-0002308,15:03:37.438462
0.067911,+0000013,-0000043,-0000005,+0000026,-0000085,+0004145,-0000728,+0000404,-0002308,15:03:37.438462
0.068244,+0000027,-0000032,-0000018,+0000048,-0000096,+0004170,-0000726,+0000412,-0002309,15:03:37.438462
0.068577,+0000000,-0000029,-0000003,+0000040,-0000099,+0004157,-0000726,+0000412,-0002309,15:03:37.438462
0.068910,+0000021,-0000031,-0000010,+0000058,-0000087,+0004154,-0000726,+0000412,-0002309,15:03:37.438462
0.069243,+0000011,-0000007,-0000019,+0000040,-0000070,+0004161,-0000728,+0000406,-0002320,15:03:37.438462
0.069576,+0000010,-0000024,-0000008,+0000028,-0000084,+0004148,-0000728,+0000406,-0002320,15:03:37.438462
0.069909,+0000010,-0000029,-0000011,+0000045,-0000100,+0004148,-0000728,+0000406,-0002320,15:03:37.438462
0.070242,+0000030,-0000043,-0000018,+0000040,-0000082,+0004157,-0000726,+0000408,-0002297,15:03:37.440469
0.070575,+0000011,-0000034,-0000004,+0000044,-0000075,+0004163,-0000726,+0000408,-0002297,15:03:37.441469
0.070908,+0000008,+0000001,-0000008,+0000045,-0000079,+0004158,-0000726,+0000408,-0002297,15:03:37.441469
0.071241,+0000000,+0000003,-0000008,+0000037,-0000085,+0004151,-0000746,+0000410,-0002296,15:03:37.441469
0.071574,+0000011,-0000023,+0000001,+0000046,-0000078,+0004144,-0000746,+0000410,-0002296,15:03:37.441469
0.071907,+0000016,-0000043,-0000010,+0000032,-0000096,+0004171,-0000746,+0000410,-0002296,15:03:37.441469
0.072240,+0000024,-0000043,-0000004,+0000027,-0000088,+0004153,-0000718,+0000420,-0002309,15:03:37.441469
0.072573,+0000022,-0000021,-0000011,+0000039,-0000097,+0004138,-0000718,+0000420,-0002309,15:03:37.441469
0.072985,-0000003,-0000006,-0000004,+0000029,-0000091,+0004148,-0000718,+0000420,-0002309,15:03:37.441469
0.073242,-0000004,-0000011,+0000006,+0000033,-0000087,+0004159,-0000728,+0000406,-0002297,15:03:37.441469
0.073576,+0000022,-0000034,-0000018,+0000041,-0000070,+0004154,-0000728,+0000406,-0002297,15:03:37.441469
0.073907,+0000016,-0000037,-0000007,+0000021,-0000083,+0004150,-0000728,+0000406,-0002297,15:03:37.441469
0.074239,+0000022,-0000016,-0000008,+0000041,-0000076,+0004145,-0000730,+0000416,-0002290,15:03:37.441469
0.074572,+0000015,-0000016,-0000003,+0000040,-0000098,+0004146,-0000730,+0000416,-0002290,15:03:37.441469
0.074904,+0000008,-0000020,-0000004,+0000026,-0000102,+0004157,-0000730,+0000416,-0002290,15:03:37.441469
0.075372,+0000000,+0000000,-0000015,+0000048,-0000088,+0004160,-0000722,+0000398,-0002305,15:03:37.441469
0.075604,+0000017,-0000037,-0000015,+0000048,-0000088,+0004160,-0000722,+0000398,-0002305,15:03:37.441469
0.075903,+0000010,-0000027,-0000002,+0000045,-0000095,+0004150,-0000722,+0000398,-0002305,15:03:37.441469
0.076237,+0000016,-0000019,-0000011,+0000027,-0000097,+0004163,-0000740,+0000408,-0002283,15:03:37.441469
0.076570,+0000002,-0000015,-0000010,+0000024,-0000098,+0004133,-0000740,+0000408,-0002283,15:03:37.441469
0.076902,+0000005,-0000012,-0000011,+0000053,-0000075,+0004156,-0000740,+0000408,-0002283,15:03:37.441469
0.077235,+0000005,-0000015,-0000003,+0000046,-0000080,+0004169,-0000728,+0000406,-0002314,15:03:37.441469
0.077570,+0000010,-0000020,-0000007,+0000018,-0000080,+0004146,-0000728,+0000406,-0002314,15:03:37.441469
0.077938,+0000008,-0000019,-0000008,+0000029,-0000087,+0004165,-0000728,+0000406,-0002314,15:03:37.441469
0.078234,+0000013,-0000023,-0000007,+0000045,-0000092,+0004149,-0000720,+0000434,-0002298,15:03:37.441469
0.078677,+0000006,-0000024,-0000013,+0000048,-0000106,+0004148,-0000720,+0000434,-0002298,15:03:37.441469
0.078906,+0000024,-0000027,-0000006,+0000050,-0000085,+0004148,-0000720,+0000434,-0002298,15:03:37.441469
0.079234,+0000004,-0000008,-0000008,+0000037,-0000092,+0004167,-0000726,+0000412,-0002333,15:03:37.441469
0.079566,+0000017,-0000021,-0000011,+0000032,-0000078,+0004143,-0000726,+0000412,-0002333,15:03:37.441469
0.079899,+0000014,-0000032,-0000010,+0000030,-0000084,+0004139,-0000726,+0000412,-0002333,15:03:37.441469
0.080232,+0000024,-0000026,-0000013,+0000024,-0000081,+0004154,-0000704,+0000414,-0002296,15:03:37.441469
0.080565,-0000002,-0000019,-0000001,+0000034,-0000082,+0004154,-0000704,+0000414,-0002296,15:03:37.441469
0.080898,+0000016,-0000024,-0000020,+0000050,-0000080,+0004147,-0000704,+0000414,-0002296,15:03:37.441469
0.081231,-0000006,-0000010,-0000010,+0000034,-0000074,+0004142,-0000710,+0000410,-0002310,15:03:37.441469
0.081564,+0000025,-0000037,-0000019,+0000026,-0000087,+0004152,-0000710,+0000410,-0002310,15:03:37.441469
0.081897,+0000022,-0000037,-0000007,+0000037,-0000069,+0004170,-0000710,+0000410,-0002310,15:03:37.441469
0.082230,+0000010,-0000029,-0000010,+0000047,-0000088,+0004141,-0000712,+0000420,-0002308,15:03:37.441469
0.082563,+0000014,-0000019,-0000015,+0000037,-0000095,+0004126,-0000712,+0000420,-0002308,15:03:37.441469
0.082896,-0000003,-0000007,+0000006,+0000042,-0000095,+0004142,-0000712,+0000420,-0002308,15:03:37.442471
0.083229,+0000000,-0000013,+0000000,+0000034,-0000070,+0004137,-0000724,+0000406,-0002306,15:03:37.442471
0.083562,+0000022,-0000042,-0000002,+0000059,-0000082,+0004136,-0000724,+0000406,-0002306,15:03:37.442471
0.083895,+0000020,-0000031,-0000010,+0000025,-0000074,+0004155,-0000724,+0000406,-0002306,15:03:37.442471
0.084228,+0000019,-0000029,-0000007,+0000038,-0000081,+0004139,-0000718,+0000406,-0002296,15:03:37.442471
0.084561,+0000002,-0000021,-0000010,+0000041,-0000068,+0004132,-0000718,+0000406,-0002296,15:03:37.442471
0.084894,-0000007,-0000016,-0000005,+0000051,-0000091,+0004153,-0000718,+0000406,-0002296,15:03:37.442471
0.085227,+0000019,-0000018,+0000000,+0000039,-0000080,+0004156,-0000700,+0000420,-0002297,15:03:37.442471
0.085560,+0000010,-0000035,+0000000,+0000035,-0000081,+0004152,-0000700,+0000420,-0002297,15:03:37.442471
0.085893,+0000025,-0000040,-0000021,+0000034,-0000105,+0004142,-0000700,+0000420,-0002297,15:03:37.442471
0.086226,+0000019,-0000023,-0000006,+0000026,-0000079,+0004167,-0000720,+0000412,-0002303,15:03:37.442471
0.086559,-0000006,+0000001,-0000002,+0000032,-0000095,+0004154,-0000720,+0000412,-0002303,15:03:37.442471
0.086892,+0000015,-0000021,-0000007,+0000059,-0000102,+0004159,-0000720,+0000412,-0002303,15:03:37.442471
0.087225,+0000011,-0000016,-0000010,+0000038,-0000078,+0004147,-0000708,+0000420,-0002296,15:03:37.442471
0.087558,+0000020,-0000043,+0000001,+0000038,-0000091,+0004132,-0000708,+0000420,-0002296,15:03:37.442471
0.087891,+0000019,-0000043,-0000016,+0000041,-0000082,+0004142,-0000708,+0000420,-0002296,15:03:37.442471
0.088224,+0000025,-0000008,-0000013,+0000050,-0000066,+0004146,-0000718,+0000412,-0002292,15:03:37.442471
0.088557,-0000006,-0000010,+0000001,+0000033,-0000090,+0004167,-0000718,+0000412,-0002292,15:03:37.442471
0.088890,+0000022,-0000028,-0000010,+0000030,-0000102,+0004166,-0000718,+0000412,-0002292,15:03:37.442471
0.089223,+0000009,-0000011,-0000008,+0000043,-0000102,+0004138,-0000734,+0000410,-0002302,15:03:37.442471
0.089556,+0000030,-0000034,-0000005,+0000032,-0000098,+0004149,-0000734,+0000410,-0002302,15:03:37.442471
0.089889,+0000025,-0000020,-0000013,+0000035,-0000099,+0004152,-0000734,+0000410,-0002302,15:03:37.442471
0.090222,+0000010,-0000011,-0000004,+0000039,-0000082,+0004160,-0000726,+0000426,-0002295,15:03:37.442471
0.090555,+0000010,-0000010,-0000016,+0000041,-0000104,+0004167,-0000726,+0000426,-0002295,15:03:37.442471
0.090888,+0000005,-0000027,-0000004,+0000049,-0000106,+0004158,-0000726,+0000426,-0002295,15:03:37.442471
0.091221,+0000010,-0000016,-0000010,+0000027,-0000090,+0004164,-0000716,+0000418,-0002301,15:03:37.442471
0.091554,+0000017,-0000035,-0000019,+0000044,-0000059,+0004155,-0000716,+0000418,-0002301,15:03:37.450463
0.091889,+0000019,-0000040,-0000010,+0000055,-0000108,+0004150,-0000716,+0000418,-0002301,15:03:37.450463
0.092220,+0000006,-0000013,-0000010,+0000043,-0000091,+0004135,-0000722,+0000420,-0002316,15:03:37.450463
0.092558,+0000009,-0000008,-0000008,+0000032,-0000097,+0004157,-0000722,+0000420,-0002316,15:03:37.450463
0.093063,+0000022,-0000035,-0000005,+0000040,-0000065,+0004138,-0000722,+0000420,-0002316,15:03:37.450463
0.093284,+0000014,-0000018,-0000005,+0000033,-0000080,+0004157,-0000724,+0000404,-0002292,15:03:37.450463
0.093632,+0000000,-0000018,-0000008,+0000058,-0000082,+0004166,-0000724,+0000404,-0002292,15:03:37.450463
0.094204,+0000008,-0000023,+0000005,+0000039,-0000065,+0004137,-0000724,+0000404,-0002292,15:03:37.451463
0.094553,+0000005,-0000016,-0000002,+0000041,-0000085,+0004159,-0000712,+0000418,-0002311,15:03:37.451463
0.094885,+0000003,-0000022,-0000002,+0000040,-0000085,+0004143,-0000712,+0000418,-0002311,15:03:37.451463
0.095354,+0000019,-0000032,-0000005,+0000042,-0000097,+0004159,-0000712,+0000418,-0002311,15:03:37.451463
0.095550,+0000017,-0000034,-0000013,+0000043,-0000084,+0004163,-0000720,+0000424,-0002305,15:03:37.451463
0.096157,+0000011,-0000013,+0000003,+0000035,-0000089,+0004145,-0000720,+0000424,-0002305,15:03:37.451463
0.096356,+0000008,-0000021,-0000013,+0000024,-0000075,+0004162,-0000720,+0000424,-0002305,15:03:37.451463
0.096557,+0000008,-0000021,-0000013,+0000027,-0000100,+0004141,-0000718,+0000408,-0002306,15:03:37.451463
0.096883,+0000024,-0000046,-0000008,+0000055,-0000081,+0004155,-0000718,+0000408,-0002306,15:03:37.451463
0.097215,+0000025,-0000040,-0000005,+0000052,-0000097,+0004163,-0000718,+0000408,-0002306,15:03:37.451463
0.097548,+0000028,-0000035,-0000017,+0000038,-0000067,+0004143,-0000728,+0000416,-0002332,15:03:37.451463
0.097881,+0000017,-0000034,-0000014,+0000037,-0000071,+0004149,-0000728,+0000416,-0002332,15:03:37.451463
0.098214,+0000010,-0000024,-0000016,+0000040,-0000069,+0004159,-0000728,+0000416,-0002332,15:03:37.451463
0.098547,+0000001,-0000007,+0000003,+0000037,-0000072,+0004152,-0000716,+0000418,-0002314,15:03:37.451463
0.098880,+0000016,-0000013,-0000007,+0000037,-0000080,+0004150,-0000716,+0000418,-0002314,15:03:37.451463
0.099215,+0000006,-0000044,-0000008,+0000045,-0000074,+0004158,-0000716,+0000418,-0002314,15:03:37.451463
0.099547,+0000016,-0000046,-0000010,+0000044,-0000085,+0004149,-0000704,+0000414,-0002314,15:03:37.451463
0.099880,+0000025,-0000032,-0000020,+0000047,-0000103,+0004141,-0000704,+0000414,-0002314,15:03:37.451463
0.100214,-0000008,-0000016,-0000002,+0000027,-0000082,+0004141,-0000704,+0000414,-0002314,15:03:37.451463
0.100545,+0000021,-0000016,-0000015,+0000036,-0000094,+0004130,-0000704,+0000410,-0002337,15:03:37.451463
0.100878,+0000017,-0000023,-0000006,+0000028,-0000098,+0004129,-0000704,+0000410,-0002337,15:03:37.451463
0.101211,+0000016,-0000040,-0000008,+0000049,-0000098,+0004152,-0000704,+0000410,-0002337,15:03:37.451463
0.101544,+0000028,-0000042,-0000002,+0000046,-0000080,+0004142,-0000718,+0000420,-0002322,15:03:37.451463
0.101877,+0000011,-0000017,+0000001,+0000048,-0000093,+0004171,-0000718,+0000420,-0002322,15:03:37.451463
0.102210,+0000021,-0000016,-0000005,+0000049,-0000091,+0004158,-0000718,+0000420,-0002322,15:03:37.451463
0.102543,+0000000,-0000016,+0000002,+0000044,-0000104,+0004145,-0000732,+0000402,-0002322,15:03:37.451463
0.102876,+0000030,-0000027,-0000013,+0000046,-0000109,+0004158,-0000732,+0000402,-0002322,15:03:37.452464
0.103209,+0000022,-0000037,-0000011,+0000032,-0000089,+0004155,-0000732,+0000402,-0002322,15:03:37.452464
0.103542,+0000012,-0000015,-0000010,+0000036,-0000085,+0004143,-0000716,+0000412,-0002308,15:03:37.452464
0.103875,-0000004,-0000016,-0000008,+0000060,-0000097,+0004147,-0000716,+0000412,-0002308,15:03:37.452464
0.104208,+0000017,-0000016,-0000011,+0000061,-0000088,+0004152,-0000716,+0000412,-0002308,15:03:37.452464
0.104541,-0000005,-0000021,-0000002,+0000029,-0000088,+0004158,-0000728,+0000410,-0002303,15:03:37.452464
0.104874,+0000021,-0000027,-0000013,+0000036,-0000085,+0004161,-0000728,+0000410,-0002303,15:03:37.452464
0.105207,+0000025,-0000047,-0000011,+0000057,-0000085,+0004155,-0000728,+0000410,-0002303,15:03:37.452464
0.105540,+0000007,-0000022,-0000010,+0000034,-0000094,+0004164,-0000712,+0000422,-0002318,15:03:37.452464
0.105873,+0000019,-0000014,-0000008,+0000042,-0000084,+0004152,-0000712,+0000422,-0002318,15:03:37.452464
0.106206,+0000016,-0000005,-0000012,+0000060,-0000086,+0004160,-0000712,+0000422,-0002318,15:03:37.452464
0.106539,+0000006,-0000028,+0000006,+0000040,-0000086,+0004153,-0000722,+0000418,-0002314,15:03:37.452464
0.106872,+0000027,-0000018,-0000016,+0000059,-0000085,+0004168,-0000722,+0000418,-0002314,15:03:37.452464
0.107205,+0000018,-0000042,-0000005,+0000060,-0000078,+0004162,-0000722,+0000418,-0002314,15:03:37.452464
0.107538,+0000021,-0000026,-0000002,+0000029,-0000085,+0004138,-0000718,+0000420,-0002304,15:03:37.452464
0.107871,+0000013,-0000031,-0000016,+0000023,-0000073,+0004139,-0000718,+0000420,-0002304,15:03:37.452464
0.108204,+0000005,-0000011,-0000003,+0000047,-0000091,+0004148,-0000718,+0000420,-0002304,15:03:37.452464
0.108537,+0000011,-0000013,-0000010,+0000045,-0000093,+0004175,-0000738,+0000414,-0002326,15:03:37.452464
0.108870,+0000018,-0000029,-0000003,+0000053,-0000079,+0004163,-0000738,+0000414,-0002326,15:03:37.452464
0.109203,+0000029,-0000037,-0000008,+0000053,-0000079,+0004154,-0000738,+0000414,-0002326,15:03:37.452464
0.109536,+0000022,-0000040,-0000018,+0000042,-0000100,+0004171,-0000718,+0000410,-0002314,15:03:37.452464
0.109869,+0000027,-0000016,-0000007,+0000031,-0000091,+0004155,-0000718,+0000410,-0002314,15:03:37.452464
0.110202,+0000005,-0000016,-0000006,+0000057,-0000076,+0004165,-0000718,+0000410,-0002314,15:03:37.452464
0.110535,+0000000,-0000013,+0000001,+0000055,-0000088,+0004143,-0000706,+0000406,-0002314,15:03:37.452464
0.110868,+0000025,-0000035,-0000011,+0000059,-0000093,+0004151,-0000706,+0000406,-0002314,15:03:37.452464
0.111201,+0000021,-0000042,-0000011,+0000047,-0000067,+0004142,-0000706,+0000406,-0002314,15:03:37.452464
0.111534,+0000016,-0000028,+0000001,+0000054,-0000069,+0004143,-0000728,+0000412,-0002290,15:03:37.452464
0.111867,+0000018,-0000027,-0000011,+0000038,-0000061,+0004135,-0000728,+0000412,-0002290,15:03:37.452464
0.112200,+0000000,-0000007,-0000004,+0000043,-0000083,+0004151,-0000728,+0000412,-0002290,15:03:37.452464
0.112533,+0000014,-0000015,-0000015,+0000059,-0000062,+0004146,-0000706,+0000412,-0002303,15:03:37.452464
0.112866,+0000027,-0000040,-0000005,+0000035,-0000064,+0004153,-0000706,+0000412,-0002303,15:03:37.452464
0.113199,+0000016,-0000037,-0000011,+0000013,-0000073,+0004170,-0000706,+0000412,-0002303,15:03:37.452464
0.113532,+0000027,-0000028,-0000004,+0000054,-0000090,+0004137,-0000724,+0000402,-0002310,15:03:37.452464
0.113865,-0000014,+0000001,+0000000,+0000034,-0000094,+0004155,-0000724,+0000402,-0002310,15:03:37.452464
0.114198,+0000002,-0000012,+0000000,+0000043,-0000097,+0004143,-0000724,+0000402,-0002310,15:03:37.452464
0.114531,+0000033,-0000021,-0000015,+0000052,-0000064,+0004144,-0000712,+0000420,-0002305,15:03:37.452464
0.114864,+0000011,-0000039,+0000003,+0000025,-0000086,+0004155,-0000712,+0000420,-0002305,15:03:37.452464
0.115197,+0000024,-0000027,-0000016,+0000049,-0000094,+0004145,-0000712,+0000420,-0002305,15:03:37.452464
0.115530,+0000011,-0000008,-0000013,+0000039,-0000084,+0004167,-0000718,+0000406,-0002289,15:03:37.452464
0.115863,+0000016,-0000016,-0000010,+0000031,-0000100,+0004145,-0000718,+0000406,-0002289,15:03:37.453463
0.116196,+0000004,-0000012,+0000009,+0000040,-0000084,+0004151,-0000718,+0000406,-0002289,15:03:37.453463
0.116529,+0000008,-0000031,-0000015,+0000039,-0000083,+0004133,-0000708,+0000410,-0002302,15:03:37.453463
0.116862,+0000027,-0000039,-0000010,+0000046,-0000082,+0004159,-0000708,+0000410,-0002302,15:03:37.453463
0.117195,+0000021,-0000021,-0000010,+0000030,-0000078,+0004152,-0000708,+0000410,-0002302,15:03:37.453463
0.117528,+0000000,-0000019,-0000016,+0000034,-0000089,+0004155,-0000706,+0000398,-0002312,15:03:37.453463
0.117863,+0000006,-0000019,-0000011,+0000055,-0000086,+0004152,-0000706,+0000398,-0002312,15:03:37.453463
0.118195,+0000018,-0000026,-0000008,+0000043,-0000081,+0004161,-0000706,+0000398,-0002312,15:03:37.453463
0.118527,+0000019,-0000019,-0000010,+0000043,-0000079,+0004157,-0000724,+0000398,-0002307,15:03:37.453463
0.118860,+0000016,-0000053,-0000024,+0000064,-0000088,+0004159,-0000724,+0000398,-0002307,15:03:37.453463
0.119193,+0000014,-0000018,-0000011,+0000045,-0000102,+0004146,-0000724,+0000398,-0002307,15:03:37.453463
0.119526,+0000005,-0000026,+0000003,+0000053,-0000091,+0004143,-0000724,+0000424,-0002301,15:03:37.453463
0.119859,+0000011,-0000010,-0000013,+0000065,-0000105,+0004160,-0000724,+0000424,-0002301,15:03:37.453463
0.120192,+0000010,-0000034,-0000015,+0000046,-0000095,+0004157,-0000724,+0000424,-0002301,15:03:37.453463
0.120525,+0000030,-0000029,-0000003,+0000050,-0000098,+0004141,-0000716,+0000416,-0002277,15:03:37.453463
0.120858,+0000019,-0000031,-0000019,+0000049,-0000098,+0004163,-0000716,+0000416,-0002277,15:03:37.453463
0.121191,+0000014,-0000037,-0000010,+0000057,-0000108,+0004130,-0000716,+0000416,-0002277,15:03:37.453463
0.121524,+0000023,-0000023,-0000016,+0000030,-0000089,+0004145,-0000720,+0000414,-0002323,15:03:37.453463
0.121857,-0000008,-0000007,-0000007,+0000058,-0000085,+0004147,-0000720,+0000414,-0002323,15:03:37.453463
0.122190,+0000008,-0000023,-0000015,+0000047,-0000095,+0004153,-0000720,+0000414,-0002323,15:03:37.453463
0.122523,+0000027,-0000029,-0000016,+0000043,-0000097,+0004144,-0000728,+0000420,-0002302,15:03:37.453463
0.122856,+0000024,-0000037,-0000012,+0000011,-0000074,+0004151,-0000728,+0000420,-0002302,15:03:37.453463
0.123189,+0000017,-0000031,-0000013,+0000036,-0000076,+0004135,-0000728,+0000420,-0002302,15:03:37.453463
0.123522,+0000009,-0000016,-0000004,+0000025,-0000079,+0004163,-0000728,+0000412,-0002324,15:03:37.453463
0.123855,+0000006,-0000007,-0000013,+0000058,-0000076,+0004128,-0000728,+0000412,-0002324,15:03:37.453463
0.124188,+0000004,-0000016,+0000000,+0000057,-0000093,+0004150,-0000728,+0000412,-0002324,15:03:37.453463
0.124521,+0000015,-0000026,-0000008,+0000053,-0000071,+0004151,-0000726,+0000418,-0002315,15:03:37.453463
0.124854,+0000024,-0000023,-0000013,+0000025,-0000104,+0004133,-0000726,+0000418,-0002315,15:03:37.453463
0.125187,+0000023,-0000035,-0000015,+0000042,-0000086,+0004143,-0000726,+0000418,-0002315,15:03:37.453463
0.125520,+0000009,-0000028,-0000013,+0000022,-0000087,+0004152,-0000716,+0000412,-0002312,15:03:37.453463
0.125853,+0000011,-0000018,-0000013,+0000034,-0000073,+0004155,-0000716,+0000412,-0002312,15:03:37.453463
0.126186,+0000010,-0000023,-0000005,+0000035,-0000072,+0004152,-0000716,+0000412,-0002312,15:03:37.453463
0.126519,+0000017,-0000030,-0000002,+0000054,-0000074,+0004149,-0000724,+0000418,-0002323,15:03:37.453463
0.126852,+0000027,-0000051,-0000014,+0000057,-0000084,+0004152,-0000724,+0000418,-0002323,15:03:37.453463
0.127185,+0000008,-0000040,-0000014,+0000030,-0000094,+0004151,-0000724,+0000418,-0002323,15:03:37.453463
0.127518,+0000002,+0000009,-0000010,+0000040,-0000079,+0004138,-0000730,+0000408,-0002297,15:03:37.453463
0.127851,-0000006,-0000018,-0000002,+0000027,-0000101,+0004140,-0000730,+0000408,-0002297,15:03:37.453463
0.128184,+0000014,-0000029,-0000007,+0000020,-0000110,+0004136,-0000730,+0000408,-0002297,15:03:37.453463
0.128517,+0000016,-0000036,-0000008,+0000043,-0000083,+0004143,-0000738,+0000380,-0002320,15:03:37.453463
0.128850,+0000025,-0000034,-0000019,+0000036,-0000082,+0004137,-0000738,+0000380,-0002320,15:03:37.453463
0.129431,+0000005,-0000032,-0000003,+0000034,-0000087,+0004140,-0000738,+0000380,-0002320,15:03:37.453463
0.129620,+0000028,-0000032,-0000003,+0000034,-0000087,+0004140,-0000724,+0000416,-0002321,15:03:37.453463
0.129854,+0000008,-0000008,-0000011,+0000046,-0000079,+0004168,-0000724,+0000416,-0002321,15:03:37.453463
0.130182,+0000011,-0000016,+0000009,+0000040,-0000090,+0004164,-0000724,+0000416,-0002321,15:03:37.454462
0.130515,+0000030,-0000034,-0000027,+0000047,-0000097,+0004169,-0000720,+0000394,-0002327,15:03:37.454462
0.130848,+0000019,-0000027,-0000010,+0000038,-0000106,+0004162,-0000720,+0000394,-0002327,15:03:37.454462
0.131181,+0000008,-0000008,-0000016,+0000039,-0000080,+0004163,-0000720,+0000394,-0002327,15:03:37.454462
0.131514,+0000003,-0000020,+0000004,+0000061,-0000088,+0004154,-0000734,+0000406,-0002310,15:03:37.454462
0.131847,+0000017,-0000011,-0000015,+0000035,-0000078,+0004172,-0000734,+0000406,-0002310,15:03:37.454462
0.132180,-0000001,-0000021,-0000004,+0000034,-0000070,+0004146,-0000734,+0000406,-0002310,15:03:37.454462
0.132513,+0000022,-0000034,-0000016,+0000054,-0000079,+0004123,-0000732,+0000414,-0002322,15:03:37.454462
0.132846,+0000013,-0000035,-0000011,+0000040,-0000076,+0004153,-0000732,+0000414,-0002322,15:03:37.454462
0.133179,+0000022,-0000029,-0000019,+0000037,-0000081,+0004165,-0000732,+0000414,-0002322,15:03:37.454462
0.133512,-0000005,+0000003,+0000003,+0000031,-0000080,+0004159,-0000724,+0000404,-0002308,15:03:37.454462
0.133845,+0000022,-0000014,-0000010,+0000046,-0000091,+0004134,-0000724,+0000404,-0002308,15:03:37.454462
0.134178,+0000007,-0000021,-0000011,+0000038,-0000089,+0004177,-0000724,+0000404,-0002308,15:03:37.454462
0.134511,+0000008,-0000031,-0000005,+0000036,-0000090,+0004171,-0000728,+0000396,-0002309,15:03:37.454462
0.134844,+0000016,-0000034,-0000013,+0000048,-0000093,+0004176,-0000728,+0000396,-0002309,15:03:37.454462
0.135177,-0000001,-0000016,-0000011,+0000043,-0000094,+0004137,-0000728,+0000396,-0002309,15:03:37.454462
0.135510,+0000024,-0000013,-0000010,+0000027,-0000083,+0004149,-0000728,+0000418,-0002302,15:03:37.454462
0.135843,-0000005,-0000018,-0000011,+0000045,-0000086,+0004153,-0000728,+0000418,-0002302,15:03:37.454462
0.136176,+0000005,-0000024,-0000002,+0000028,-0000085,+0004160,-0000728,+0000418,-0002302,15:03:37.454462
0.136509,+0000022,-0000029,-0000010,+0000038,-0000106,+0004150,-0000738,+0000402,-0002329,15:03:37.454462
0.136842,+0000027,-0000037,-0000019,+0000037,-0000098,+0004166,-0000738,+0000402,-0002329,15:03:37.454462
0.137175,-0000008,-0000013,-0000008,+0000038,-0000097,+0004154,-0000738,+0000402,-0002329,15:03:37.454462
0.137508,+0000009,-0000021,-0000013,+0000027,-0000087,+0004152,-0000728,+0000428,-0002321,15:03:37.454462
0.137846,+0000009,-0000023,+0000003,+0000044,-0000084,+0004154,-0000728,+0000428,-0002321,15:03:37.454462
0.138181,+0000014,-0000027,-0000005,+0000039,-0000070,+0004168,-0000728,+0000428,-0002321,15:03:37.454462
0.138507,+0000002,-0000029,-0000005,+0000038,-0000105,+0004161,-0000712,+0000412,-0002343,15:03:37.454462
0.138840,+0000012,-0000032,-0000016,+0000044,-0000072,+0004161,-0000712,+0000412,-0002343,15:03:37.454462
0.139173,+0000013,-0000013,-0000011,+0000043,-0000078,+0004137,-0000712,+0000412,-0002343,15:03:37.454462
0.139506,+0000000,-0000007,+0000003,+0000040,-0000080,+0004159,-0000718,+0000418,-0002317,15:03:37.454462
0.139839,+0000010,-0000019,-0000014,+0000027,-0000088,+0004162,-0000718,+0000418,-0002317,15:03:37.454462
0.140172,+0000027,-0000036,+0000000,+0000035,-0000086,+0004167,-0000718,+0000418,-0002317,15:03:37.454462
0.140505,+0000025,-0000026,-0000005,+0000053,-0000082,+0004146,-0000742,+0000402,-0002293,15:03:37.454462
0.140838,+0000021,-0000031,-0000027,+0000040,-0000102,+0004140,-0000742,+0000402,-0002293,15:03:37.454462
0.141171,-0000001,+0000003,+0000001,+0000044,-0000100,+0004168,-0000742,+0000402,-0002293,15:03:37.454462
0.141504,-0000004,-0000003,+0000000,+0000046,-0000096,+0004161,-0000708,+0000422,-0002328,15:03:37.466471
0.141841,+0000010,-0000021,-0000008,+0000064,-0000105,+0004151,-0000708,+0000422,-0002328,15:03:37.466471
0.142170,+0000017,-0000042,-0000011,+0000050,-0000106,+0004157,-0000708,+0000422,-0002328,15:03:37.466471
0.142508,+0000011,-0000035,-0000013,+0000046,-0000089,+0004144,-0000724,+0000414,-0002306,15:03:37.466471
0.143080,+0000000,-0000026,-0000013,+0000039,-0000088,+0004163,-0000724,+0000414,-0002306,15:03:37.466471
0.143287,+0000014,-0000026,-0000013,+0000039,-0000088,+0004163,-0000724,+0000414,-0002306,15:03:37.466471
0.143649,+0000011,-0000021,-0000010,+0000032,-0000087,+0004148,-0000740,+0000420,-0002298,15:03:37.466471
0.143911,+0000011,-0000021,-0000010,+0000040,-0000069,+0004147,-0000740,+0000420,-0002298,15:03:37.466471
0.144171,+0000011,-0000019,-0000003,+0000027,-0000081,+0004153,-0000740,+0000420,-0002298,15:03:37.466471
0.144507,+0000003,-0000021,-0000004,+0000035,-0000069,+0004138,-0000712,+0000414,-0002284,15:03:37.466471
0.144835,-0000001,-0000022,-0000002,+0000020,-0000081,+0004145,-0000712,+0000414,-0002284,15:03:37.466471
0.145167,+0000014,-0000013,-0000010,+0000040,-0000076,+0004144,-0000712,+0000414,-0002284,15:03:37.466471
0.145501,+0000021,-0000029,-0000007,+0000022,-0000078,+0004126,-0000722,+0000408,-0002308,15:03:37.466471
0.145833,+0000022,-0000027,-0000011,+0000050,-0000080,+0004153,-0000722,+0000408,-0002308,15:03:37.466471
0.146166,+0000012,-0000045,-0000027,+0000045,-0000095,+0004141,-0000722,+0000408,-0002308,15:03:37.467471
0.146499,+0000006,-0000016,+0000005,+0000038,-0000067,+0004147,-0000740,+0000400,-0002332,15:03:37.467471
0.146832,+0000027,-0000028,-0000026,+0000016,-0000068,+0004161,-0000740,+0000400,-0002332,15:03:37.467471
0.147165,+0000000,-0000005,-0000005,+0000027,-0000069,+0004146,-0000740,+0000400,-0002332,15:03:37.467471
0.147498,+0000016,-0000010,+0000000,+0000038,-0000092,+0004144,-0000706,+0000408,-0002341,15:03:37.467471
0.147831,+0000018,-0000024,-0000003,+0000051,-0000097,+0004147,-0000706,+0000408,-0002341,15:03:37.467471
0.148164,+0000016,-0000028,-0000005,+0000044,-0000093,+0004150,-0000706,+0000408,-0002341,15:03:37.467471
0.148497,+0000032,-0000030,-0000008,+0000038,-0000090,+0004162,-0000724,+0000404,-0002308,15:03:37.467471
0.148830,-0000005,-0000013,-0000015,+0000043,-0000073,+0004134,-0000724,+0000404,-0002308,15:03:37.467471
0.149163,+0000017,-0000013,-0000004,+0000042,-0000081,+0004165,-0000724,+0000404,-0002308,15:03:37.467471
0.149496,+0000005,-0000019,-0000013,+0000040,-0000093,+0004160,-0000718,+0000408,-0002308,15:03:37.467471
0.149829,+0000005,-0000026,+0000006,+0000035,-0000069,+0004154,-0000718,+0000408,-0002308,15:03:37.467471
0.150162,+0000028,-0000036,-0000021,+0000035,-0000096,+0004150,-0000718,+0000408,-0002308,15:03:37.467471
0.150495,+0000010,-0000019,-0000002,+0000047,-0000076,+0004144,-0000706,+0000410,-0002319,15:03:37.467471
0.150828,+0000013,-0000013,-0000013,+0000059,-0000070,+0004141,-0000706,+0000410,-0002319,15:03:37.467471
0.151161,+0000022,-0000019,-0000010,+0000058,-0000093,+0004139,-0000706,+0000410,-0002319,15:03:37.467471
0.151494,+0000006,-0000002,+0000001,+0000052,-0000087,+0004166,-0000720,+0000408,-0002297,15:03:37.467471
0.151827,+0000021,-0000050,-0000008,+0000046,-0000099,+0004156,-0000720,+0000408,-0002297,15:03:37.467471
0.152160,+0000018,-0000039,-0000007,+0000030,-0000086,+0004157,-0000720,+0000408,-0002297,15:03:37.467471
0.152493,+0000014,-0000039,-0000012,+0000041,-0000094,+0004157,-0000720,+0000406,-0002311,15:03:37.467471
0.152826,+0000011,-0000004,-0000007,+0000048,-0000102,+0004148,-0000720,+0000406,-0002311,15:03:37.467471
0.153159,-0000001,-0000007,-0000007,+0000045,-0000080,+0004123,-0000720,+0000406,-0002311,15:03:37.467471
0.153492,+0000011,-0000020,-0000008,+0000046,-0000085,+0004146,-0000718,+0000430,-0002312,15:03:37.468467
0.153825,+0000021,-0000026,-0000015,+0000033,-0000098,+0004152,-0000718,+0000430,-0002312,15:03:37.468467
0.154158,+0000011,-0000047,-0000003,+0000027,-0000093,+0004147,-0000718,+0000430,-0002312,15:03:37.468467
0.154520,+0000038,-0000023,+0000001,+0000040,-0000087,+0004154,-0000716,+0000398,-0002319,15:03:37.468467
0.154824,+0000017,-0000010,+0000011,+0000037,-0000076,+0004150,-0000716,+0000398,-0002319,15:03:37.468467
0.155157,-0000002,-0000019,-0000022,+0000032,-0000067,+0004148,-0000716,+0000398,-0002319,15:03:37.468467
0.155490,+0000019,-0000039,-0000011,+0000032,-0000094,+0004150,-0000720,+0000398,-0002315,15:03:37.468467
0.155823,+0000020,-0000026,-0000005,+0000022,-0000091,+0004166,-0000720,+0000398,-0002315,15:03:37.468467
0.156156,+0000017,-0000042,-0000013,+0000029,-0000110,+0004145,-0000720,+0000398,-0002315,15:03:37.468467
0.156489,+0000014,-0000024,-0000010,+0000027,-0000080,+0004149,-0000728,+0000410,-0002302,15:03:37.468467
0.156822,+0000011,-0000007,-0000003,+0000044,-0000096,+0004149,-0000728,+0000410,-0002302,15:03:37.468467
0.157155,+0000005,-0000020,-0000004,+0000035,-0000087,+0004166,-0000728,+0000410,-0002302,15:03:37.468467
0.157488,+0000027,-0000027,-0000003,+0000037,-0000076,+0004142,-0000718,+0000422,-0002304,15:03:37.468467
0.157856,+0000002,-0000029,+0000003,+0000047,-0000085,+0004152,-0000718,+0000422,-0002304,15:03:37.468467
0.158154,+0000023,-0000019,-0000007,+0000028,-0000093,+0004151,-0000718,+0000422,-0002304,15:03:37.468467
0.158487,+0000005,-0000026,-0000002,+0000039,-0000105,+0004165,-0000724,+0000418,-0002310,15:03:37.468467
0.158820,-0000003,-0000026,-0000012,+0000048,-0000094,+0004159,-0000724,+0000418,-0002310,15:03:37.468467
0.159153,+0000011,-0000016,-0000005,+0000041,-0000093,+0004161,-0000724,+0000418,-0002310,15:03:37.468467
0.159486,+0000017,-0000029,-0000007,+0000026,-0000084,+0004154,-0000718,+0000392,-0002286,15:03:37.468467
0.159819,+0000016,-0000048,-0000026,+0000044,-0000093,+0004145,-0000718,+0000392,-0002286,15:03:37.857324
0.160152,+0000022,-0000026,+0000001,+0000036,-0000095,+0004127,-0000718,+0000392,-0002286,15:03:37.857324
0.160485,+0000015,-0000015,-0000013,+0000034,-0000082,+0004145,-0000710,+0000418,-0002297,15:03:37.857324
0.160818,+0000003,-0000016,-0000014,+0000052,-0000077,+0004159,-0000710,+0000418,-0002297,15:03:37.857324
0.161151,+0000025,-0000003,+0000001,+0000035,-0000077,+0004162,-0000710,+0000418,-0002297,15:03:37.857324
0.161484,+0000014,-0000028,+0000001,+0000043,-0000090,+0004160,-0000728,+0000428,-0002321,15:03:37.857324
0.161817,+0000025,-0000029,-0000005,+0000035,-0000078,+0004146,-0000728,+0000428,-0002321,15:03:37.857324
0.162150,+0000014,-0000023,-0000016,+0000045,-0000064,+0004148,-0000728,+0000428,-0002321,15:03:37.857324
0.162483,+0000020,-0000026,-0000007,+0000035,-0000085,+0004163,-0000722,+0000410,-0002311,15:03:37.857324
0.162816,+0000002,-0000012,-0000010,+0000039,-0000095,+0004146,-0000722,+0000410,-0002311,15:03:37.857324
0.163149,+0000013,-0000012,-0000004,+0000037,-0000109,+0004165,-0000722,+0000410,-0002311,15:03:37.857324
0.163482,+0000021,-0000024,-0000006,+0000029,-0000073,+0004147,-0000724,+0000412,-0002328,15:03:37.857324
0.163815,+0000011,-0000029,-0000005,+0000031,-0000068,+0004135,-0000724,+0000412,-0002328,15:03:37.857324
0.164148,+0000027,-0000033,-0000008,+0000029,-0000086,+0004157,-0000724,+0000412,-0002328,15:03:37.857324
0.164481,+0000005,-0000020,-0000013,+0000047,-0000098,+0004172,-0000724,+0000424,-0002319,15:03:37.857324
0.164814,+0000013,-0000016,-0000002,+0000047,-0000077,+0004158,-0000724,+0000424,-0002319,15:03:37.857324
0.165147,+0000000,-0000015,-0000007,+0000039,-0000076,+0004161,-0000724,+0000424,-0002319,15:03:37.857324
0.165480,+0000019,-0000037,-0000003,+0000034,-0000068,+0004164,-0000730,+0000420,-0002268,15:03:37.857324
0.165813,+0000032,-0000040,-0000021,+0000039,-0000091,+0004142,-0000730,+0000420,-0002268,15:03:37.857324
0.166146,+0000013,-0000030,-0000007,+0000027,-0000084,+0004165,-0000730,+0000420,-0002268,15:03:37.857324
0.166479,+0000009,-0000015,-0000011,+0000046,-0000071,+0004147,-0000724,+0000420,-0002315,15:03:37.857324
0.166812,-0000008,-0000007,+0000005,+0000036,-0000108,+0004148,-0000724,+0000420,-0002315,15:03:37.857324
0.167145,+0000021,-0000034,-0000019,+0000064,-0000076,+0004153,-0000724,+0000420,-0002315,15:03:37.857324
0.167478,+0000009,-0000029,+0000003,+0000051,-0000098,+0004138,-0000710,+0000430,-0002329,15:03:37.857324
0.167811,+0000025,-0000048,-0000015,+0000039,-0000091,+0004159,-0000710,+0000430,-0002329,15:03:37.857324
0.168144,+0000022,-0000023,-0000010,+0000045,-0000076,+0004162,-0000710,+0000430,-0002329,15:03:37.857324
0.168477,-0000006,+0000008,-0000019,+0000042,-0000089,+0004138,-0000722,+0000422,-0002286,15:03:37.857324
0.168810,+0000000,-0000011,+0000006,+0000043,-0000064,+0004149,-0000722,+0000422,-0002286,15:03:37.857324
0.169143,+0000017,-0000043,-0000018,+0000039,-0000085,+0004149,-0000722,+0000422,-0002286,15:03:37.857324
0.169486,+0000010,-0000030,-0000008,+0000038,-0000085,+0004173,-0000710,+0000418,-0002309,15:03:37.858322
0.169809,+0000019,-0000050,-0000015,+0000057,-0000110,+0004181,-0000710,+0000418,-0002309,15:03:37.858322
0.170142,-0000006,-0000011,-0000007,+0000042,-0000066,+0004156,-0000710,+0000418,-0002309,15:03:37.858322
0.170475,+0000010,-0000010,+0000003,+0000039,-0000068,+0004137,-0000722,+0000414,-0002294,15:03:37.858322
0.170808,+0000010,-0000020,-0000013,+0000030,-0000079,+0004142,-0000722,+0000414,-0002294,15:03:37.858322
0.171141,+0000027,-0000023,-0000007,+0000038,-0000070,+0004148,-0000722,+0000414,-0002294,15:03:37.858322
0.171474,+0000006,-0000024,-0000004,+0000043,-0000093,+0004155,-0000728,+0000400,-0002299,15:03:37.858322
0.171807,+0000035,-0000029,-0000015,+0000042,-0000074,+0004163,-0000728,+0000400,-0002299,15:03:37.858322
0.172140,-0000003,-0000015,+0000003,+0000051,-0000086,+0004157,-0000728,+0000400,-0002299,15:03:37.858322
0.172473,+0000033,-0000031,-0000016,+0000023,-0000093,+0004153,-0000720,+0000420,-0002309,15:03:37.858322
0.172806,-0000012,-0000001,+0000004,+0000022,-0000086,+0004156,-0000720,+0000420,-0002309,15:03:37.858322
0.173139,+0000044,-0000045,-0000019,+0000049,-0000080,+0004153,-0000720,+0000420,-0002309,15:03:37.858322
0.173472,+0000013,-0000038,-0000013,+0000038,-0000083,+0004146,-0000724,+0000416,-0002308,15:03:37.858322
0.173805,+0000019,-0000024,-0000015,+0000036,-0000098,+0004150,-0000724,+0000416,-0002308,15:03:37.858322
0.174138,+0000006,-0000019,-0000013,+0000050,-0000101,+0004160,-0000724,+0000416,-0002308,15:03:37.858322
0.174471,+0000011,-0000023,-0000008,+0000040,-0000092,+0004151,-0000720,+0000432,-0002302,15:03:37.858322
0.174804,+0000001,-0000011,-0000008,+0000033,-0000096,+0004148,-0000720,+0000432,-0002302,15:03:37.858322
0.175137,+0000023,-0000024,-0000002,+0000035,-0000102,+0004170,-0000720,+0000432,-0002302,15:03:37.858322
0.175470,+0000023,-0000028,-0000013,+0000028,-0000100,+0004182,-0000720,+0000424,-0002351,15:03:37.858322
0.175803,+0000022,-0000030,-0000002,+0000032,-0000072,+0004164,-0000720,+0000424,-0002351,15:03:37.858322
0.176136,+0000020,-0000023,-0000019,+0000046,-0000084,+0004136,-0000720,+0000424,-0002351,15:03:37.858322
0.176531,-0000001,-0000013,-0000018,+0000028,-0000060,+0004158,-0000726,+0000410,-0002313,15:03:37.858322
0.176802,+0000013,-0000015,-0000018,+0000025,-0000095,+0004164,-0000726,+0000410,-0002313,15:03:37.858322
0.177135,+0000011,-0000035,-0000013,+0000038,-0000084,+0004172,-0000726,+0000410,-0002313,15:03:37.858322
0.177468,+0000016,-0000029,-0000004,+0000049,-0000102,+0004143,-0000718,+0000408,-0002301,15:03:37.858322
0.177801,+0000025,-0000032,-0000008,+0000064,-0000104,+0004146,-0000718,+0000408,-0002301,15:03:37.858322
0.178134,+0000002,-0000020,-0000014,+0000038,-0000079,+0004145,-0000718,+0000408,-0002301,15:03:37.858322
0.178571,+0000013,-0000026,-0000015,+0000028,-0000101,+0004140,-0000722,+0000400,-0002304,15:03:37.858322
0.178799,+0000013,-0000007,-0000004,+0000038,-0000087,+0004148,-0000722,+0000400,-0002304,15:03:37.858322
0.179337,+0000013,-0000041,+0000001,+0000045,-0000075,+0004139,-0000722,+0000400,-0002304,15:03:37.858322
0.179541,+0000013,-0000041,+0000001,+0000045,-0000075,+0004164,-0000732,+0000434,-0002301,15:03:37.858322
0.179812,+0000008,-0000015,-0000013,+0000050,-0000087,+0004164,-0000732,+0000434,-0002301,15:03:37.858322
0.180135,+0000011,-0000012,+0000000,+0000046,-0000080,+0004144,-0000732,+0000434,-0002301,15:03:37.858322
0.180466,+0000019,-0000024,-0000007,+0000038,-0000075,+0004136,-0000716,+0000420,-0002324,15:03:37.858322
0.180799,+0000018,-0000034,-0000014,+0000027,-0000081,+0004145,-0000716,+0000420,-0002324,15:03:37.858322
0.181132,+0000011,-0000034,-0000002,+0000057,-0000081,+0004141,-0000716,+0000420,-0002324,15:03:37.858322
0.181476,+0000016,-0000036,-0000010,+0000038,-0000083,+0004147,-0000714,+0000422,-0002300,15:03:37.858322
0.181798,+0000030,-0000027,-0000016,+0000039,-0000097,+0004148,-0000714,+0000422,-0002300,15:03:37.858322
0.182131,+0000017,-0000010,+0000001,+0000052,-0000074,+0004142,-0000714,+0000422,-0002300,15:03:37.858322
0.182475,+0000014,-0000018,-0000015,+0000053,-0000088,+0004149,-0000740,+0000424,-0002299,15:03:37.858322
0.182798,+0000011,-0000031,-0000006,+0000043,-0000085,+0004132,-0000740,+0000424,-0002299,15:03:37.858322
0.183129,+0000019,-0000038,-0000007,+0000040,-0000079,+0004134,-0000740,+0000424,-0002299,15:03:37.858322
0.183475,+0000019,-0000032,-0000013,+0000045,-0000081,+0004160,-0000732,+0000428,-0002291,15:03:37.858322
0.183795,+0000005,-0000015,-0000015,+0000034,-0000083,+0004160,-0000732,+0000428,-0002291,15:03:37.858322
0.184128,-0000006,-0000012,+0000000,+0000052,-0000102,+0004145,-0000732,+0000428,-0002291,15:03:37.858322
0.184474,+0000000,-0000013,-0000002,+0000023,-0000092,+0004153,-0000706,+0000410,-0002299,15:03:37.859323
0.184794,+0000028,-0000028,-0000022,+0000043,-0000080,+0004138,-0000706,+0000410,-0002299,15:03:37.859323
0.185127,+0000019,-0000034,+0000001,+0000044,-0000084,+0004144,-0000706,+0000410,-0002299,15:03:37.859323
0.185473,+0000012,-0000030,-0000010,+0000032,-0000081,+0004142,-0000728,+0000422,-0002306,15:03:37.859323
0.185794,+0000006,-0000008,-0000008,+0000053,-0000095,+0004156,-0000728,+0000422,-0002306,15:03:37.859323
0.186126,+0000010,-0000007,-0000003,+0000038,-0000066,+0004145,-0000728,+0000422,-0002306,15:03:37.859323
0.186472,+0000009,-0000013,-0000008,+0000046,-0000060,+0004152,-0000740,+0000416,-0002322,15:03:37.859323
0.186794,+0000010,-0000026,-0000005,+0000037,-0000078,+0004132,-0000740,+0000416,-0002322,15:03:37.859323
0.187125,+0000024,-0000035,-0000018,+0000048,-0000089,+0004149,-0000740,+0000416,-0002322,15:03:37.859323
0.187461,+0000022,-0000018,+0000001,+0000043,-0000085,+0004153,-0000734,+0000404,-0002315,15:03:37.859323
0.187791,-0000001,-0000032,-0000010,+0000036,-0000088,+0004149,-0000734,+0000404,-0002315,15:03:37.859323
0.188124,+0000016,-0000005,-0000016,+0000047,-0000086,+0004165,-0000734,+0000404,-0002315,15:03:37.859323
0.188457,+0000002,-0000021,-0000002,+0000043,-0000087,+0004138,-0000730,+0000426,-0002308,15:03:37.859323
0.188791,+0000024,-0000031,+0000001,+0000046,-0000099,+0004151,-0000730,+0000426,-0002308,15:03:37.860322
0.189123,+0000035,-0000026,-0000008,+0000040,-0000076,+0004143,-0000730,+0000426,-0002308,15:03:37.860322
0.189456,+0000005,-0000040,-0000015,+0000037,-0000086,+0004155,-0000716,+0000430,-0002304,15:03:37.860322
0.189791,+0000014,-0000013,-0000011,+0000045,-0000087,+0004168,-0000716,+0000430,-0002304,15:03:37.860322
0.190122,-0000003,-0000003,-0000005,+0000036,-0000089,+0004149,-0000716,+0000430,-0002304,15:03:37.860322
0.190455,+0000016,-0000023,-0000005,+0000022,-0000086,+0004138,-0000736,+0000430,-0002316,15:03:37.860322
0.190791,+0000011,-0000016,+0000003,+0000037,-0000082,+0004140,-0000736,+0000430,-0002316,15:03:37.860322
0.191121,+0000011,-0000043,-0000007,+0000037,-0000085,+0004148,-0000736,+0000430,-0002316,15:03:37.860322
0.191454,+0000023,-0000021,-0000010,+0000030,-0000073,+0004150,-0000716,+0000418,-0002279,15:03:37.860322
0.191787,-0000008,-0000013,-0000002,+0000044,-0000094,+0004129,-0000716,+0000418,-0002279,15:03:37.860322
0.192122,+0000013,-0000013,-0000020,+0000020,-0000077,+0004151,-0000716,+0000418,-0002279,15:03:37.860322
0.192457,+0000002,-0000015,+0000003,+0000028,-0000079,+0004150,-0000734,+0000410,-0002295,15:03:37.860322
0.192955,+0000007,-0000015,-0000008,+0000031,-0000096,+0004145,-0000734,+0000410,-0002295,15:03:37.860322
0.193155,+0000007,-0000015,-0000008,+0000031,-0000096,+0004145,-0000734,+0000410,-0002295,15:03:37.860322
0.193547,+0000008,-0000024,-0000011,+0000039,-0000096,+0004165,-0000716,+0000416,-0002279,15:03:37.860322
0.193970,+0000014,-0000026,-0000006,+0000029,-0000099,+0004154,-0000716,+0000416,-0002279,15:03:37.860322
0.194133,+0000020,-0000026,-0000010,+0000045,-0000103,+0004160,-0000716,+0000416,-0002279,15:03:37.860322
0.194452,+0000028,-0000050,-0000016,+0000010,-0000086,+0004160,-0000724,+0000418,-0002302,15:03:37.860322
0.194788,+0000016,-0000024,-0000005,+0000030,-0000071,+0004152,-0000724,+0000418,-0002302,15:03:37.860322
0.195125,+0000019,-0000034,-0000008,+0000046,-0000095,+0004141,-0000724,+0000418,-0002302,15:03:37.860322
0.195456,+0000016,-0000032,-0000010,+0000056,-0000093,+0004143,-0000712,+0000414,-0002324,15:03:37.860322
0.195787,+0000010,-0000029,-0000013,+0000037,-0000064,+0004149,-0000712,+0000414,-0002324,15:03:37.860322
0.196144,+0000007,-0000026,-0000004,+0000025,-0000077,+0004144,-0000712,+0000414,-0002324,15:03:37.860322
0.196450,+0000017,-0000015,-0000002,+0000041,-0000077,+0004161,-0000724,+0000408,-0002320,15:03:37.860322
0.196787,+0000025,-0000046,-0000011,+0000034,-0000090,+0004156,-0000724,+0000408,-0002320,15:03:37.860322
0.197116,+0000028,-0000031,-0000005,+0000039,-0000078,+0004167,-0000724,+0000408,-0002320,15:03:37.860322
0.197448,-0000001,-0000026,-0000016,+0000055,-0000095,+0004147,-0000728,+0000446,-0002313,15:03:37.860322
0.197786,+0000000,-0000010,-0000006,+0000050,-0000093,+0004146,-0000728,+0000446,-0002313,15:03:37.860322
0.198114,+0000027,-0000005,-0000008,+0000058,-0000094,+0004139,-0000728,+0000446,-0002313,15:03:37.860322
0.198449,+0000024,-0000029,-0000019,+0000040,-0000080,+0004153,-0000728,+0000432,-0002328,15:03:37.860322
0.198785,+0000005,-0000024,-0000010,+0000042,-0000083,+0004144,-0000728,+0000432,-0002328,15:03:37.860322
0.199114,+0000038,-0000023,-0000004,+0000039,-0000081,+0004149,-0000728,+0000432,-0002328,15:03:37.860322
0.199449,+0000015,-0000008,-0000018,+0000039,-0000068,+0004125,-0000742,+0000428,-0002295,15:03:37.860322
0.199785,+0000011,-0000016,-0000005,+0000049,-0000094,+0004140,-0000742,+0000428,-0002295,15:03:37.860322
0.200112,+0000017,-0000026,-0000005,+0000056,-0000085,+0004139,-0000742,+0000428,-0002295,15:03:37.860322
0.200445,+0000017,-0000037,-0000008,+0000038,-0000116,+0004142,-0000734,+0000412,-0002286,15:03:37.860322
0.200784,+0000019,-0000047,-0000018,+0000044,-0000090,+0004158,-0000734,+0000412,-0002286,15:03:37.860322
0.201112,+0000008,-0000015,-0000002,+0000053,-0000079,+0004132,-0000734,+0000412,-0002286,15:03:37.860322
0.201444,+0000006,-0000019,-0000016,+0000058,-0000085,+0004157,-0000718,+0000424,-0002308,15:03:37.860322
0.201906,+0000018,-0000008,-0000008,+0000048,-0000104,+0004189,-0000718,+0000424,-0002308,15:03:37.860322
0.202110,+0000018,-0000008,-0000008,+0000048,-0000104,+0004154,-0000718,+0000424,-0002308,15:03:37.860322
0.202443,+0000005,-0000028,-0000008,+0000039,-0000099,+0004160,-0000714,+0000420,-0002287,15:03:37.860322
0.202782,+0000010,-0000040,-0000001,+0000036,-0000085,+0004148,-0000714,+0000420,-0002287,15:03:37.860322
0.203109,+0000011,-0000029,-0000016,+0000025,-0000082,+0004161,-0000714,+0000420,-0002287,15:03:37.860322
0.203442,+0000012,-0000009,-0000001,+0000020,-0000087,+0004160,-0000732,+0000418,-0002297,15:03:37.860322
0.203781,-0000001,-0000021,+0000001,+0000041,-0000094,+0004155,-0000732,+0000418,-0002297,15:03:37.860322
0.204108,+0000020,-0000013,-0000011,+0000050,-0000077,+0004153,-0000732,+0000418,-0002297,15:03:37.860322
0.204441,+0000031,-0000043,-0000005,+0000050,-0000084,+0004137,-0000716,+0000422,-0002305,15:03:37.860322
0.204780,+0000016,-0000027,-0000015,+0000040,-0000090,+0004157,-0000716,+0000422,-0002305,15:03:37.860322
0.205107,+0000030,-0000031,-0000005,+0000029,-0000085,+0004138,-0000716,+0000422,-0002305,15:03:37.860322
0.205450,+0000013,-0000011,-0000014,+0000035,-0000085,+0004158,-0000708,+0000420,-0002323,15:03:37.860322
0.205779,+0000006,-0000016,-0000010,+0000026,-0000088,+0004142,-0000708,+0000420,-0002323,15:03:37.860322
0.206348,+0000027,-0000031,-0000002,+0000032,-0000098,+0004141,-0000708,+0000420,-0002323,15:03:37.860322
0.206531,+0000011,-0000031,-0000002,+0000032,-0000098,+0004141,-0000726,+0000430,-0002319,15:03:37.860322
0.206780,-0000001,-0000004,-0000005,+0000039,-0000104,+0004138,-0000726,+0000430,-0002319,15:03:37.860322
0.207105,-0000003,-0000003,-0000010,+0000037,-0000061,+0004153,-0000726,+0000430,-0002319,15:03:37.860322
0.207438,+0000010,-0000015,-0000003,+0000044,-0000089,+0004134,-0000730,+0000430,-0002321,15:03:37.860322
0.207771,-0000004,-0000005,-0000005,+0000048,-0000097,+0004152,-0000730,+0000430,-0002321,15:03:37.860322
0.208104,+0000008,-0000013,-0000008,+0000031,-0000081,+0004135,-0000730,+0000430,-0002321,15:03:37.860322
0.208437,+0000011,-0000027,-0000002,+0000050,-0000084,+0004127,-0000724,+0000404,-0002316,15:03:37.860322
0.208770,+0000024,-0000029,-0000019,+0000052,-0000102,+0004144,-0000724,+0000404,-0002316,15:03:37.860322
0.209103,+0000007,-0000029,-0000005,+0000051,-0000076,+0004130,-0000724,+0000404,-0002316,15:03:37.860322
0.209436,+0000005,-0000002,-0000013,+0000034,-0000076,+0004138,-0000720,+0000422,-0002299,15:03:37.860322
0.209769,-0000008,+0000001,+0000000,+0000042,-0000099,+0004174,-0000720,+0000422,-0002299,15:03:37.860322
0.210102,+0000019,-0000035,-0000003,+0000036,-0000084,+0004165,-0000720,+0000422,-0002299,15:03:37.860322
0.210435,+0000013,-0000021,-0000010,+0000039,-0000089,+0004168,-0000738,+0000396,-0002339,15:03:37.860322
0.210768,+0000025,-0000047,-0000019,+0000053,-0000082,+0004176,-0000738,+0000396,-0002339,15:03:37.860322
0.211101,+0000003,-0000013,-0000005,+0000037,-0000093,+0004153,-0000738,+0000396,-0002339,15:03:37.860322
0.211434,-0000002,-0000023,-0000008,+0000046,-0000097,+0004156,-0000740,+0000420,-0002313,15:03:37.860322
0.211767,+0000017,-0000023,-0000014,+0000041,-0000093,+0004154,-0000740,+0000420,-0002313,15:03:37.860322
0.212100,+0000017,-0000021,-0000018,+0000033,-0000085,+0004153,-0000740,+0000420,-0002313,15:03:37.860322
0.212433,+0000014,-0000016,+0000000,+0000038,-0000080,+0004157,-0000726,+0000414,-0002300,15:03:37.860322
0.212766,+0000035,-0000019,-0000010,+0000038,-0000072,+0004123,-0000726,+0000414,-0002300,15:03:37.860322
0.213099,+0000002,-0000015,-0000010,+0000050,-0000086,+0004136,-0000726,+0000414,-0002300,15:03:37.860322
0.213432,+0000014,-0000026,-0000016,+0000033,-0000108,+0004158,-0000722,+0000412,-0002300,15:03:37.860322
0.213765,+0000002,-0000021,-0000005,+0000052,-0000082,+0004152,-0000722,+0000412,-0002300,15:03:37.860322
0.214098,+0000005,-0000022,-0000005,+0000061,-0000106,+0004152,-0000722,+0000412,-0002300,15:03:37.860322
0.214431,+0000024,-0000027,-0000006,+0000047,-0000072,+0004171,-0000722,+0000426,-0002308,15:03:37.860322
0.214764,+0000020,-0000032,-0000006,+0000036,-0000085,+0004142,-0000722,+0000426,-0002308,15:03:37.860322
0.215097,+0000007,-0000029,-0000013,+0000040,-0000091,+0004136,-0000722,+0000426,-0002308,15:03:37.860322
0.215430,+0000014,-0000013,-0000005,+0000047,-0000085,+0004146,-0000700,+0000416,-0002317,15:03:37.860322
0.215763,+0000019,-0000018,-0000008,+0000037,-0000085,+0004161,-0000700,+0000416,-0002317,15:03:37.860322
0.216096,+0000006,-0000028,-0000005,+0000057,-0000070,+0004146,-0000700,+0000416,-0002317,15:03:37.860322
0.216429,+0000009,-0000036,-0000004,+0000030,-0000078,+0004158,-0000710,+0000408,-0002327,15:03:37.860322
0.216762,+0000008,-0000038,-0000011,+0000037,-0000055,+0004150,-0000710,+0000408,-0002327,15:03:37.860322
0.217095,+0000016,-0000005,-0000005,+0000034,-0000097,+0004161,-0000710,+0000408,-0002327,15:03:37.860322
0.217428,+0000016,-0000011,-0000016,+0000047,-0000072,+0004147,-0000714,+0000406,-0002320,15:03:37.860322
0.217761,+0000013,-0000024,-0000015,+0000028,-0000092,+0004157,-0000714,+0000406,-0002320,15:03:37.860322
0.218094,+0000008,-0000013,-0000005,+0000042,-0000086,+0004148,-0000714,+0000406,-0002320,15:03:37.860322
0.218427,+0000013,-0000031,-0000013,+0000036,-0000076,+0004165,-0000722,+0000422,-0002300,15:03:37.860322
0.218760,+0000011,-0000029,-0000007,+0000033,-0000092,+0004152,-0000722,+0000422,-0002300,15:03:37.860322
0.219093,+0000016,-0000032,-0000010,+0000041,-0000067,+0004152,-0000722,+0000422,-0002300,15:03:37.860322
0.219426,+0000006,-0000011,-0000012,+0000009,-0000076,+0004141,-0000714,+0000414,-0002312,15:03:37.860322
0.219759,+0000004,-0000013,-0000003,+0000037,-0000106,+0004154,-0000714,+0000414,-0002312,15:03:37.860322
0.220092,+0000019,-0000027,+0000000,+0000041,-0000077,+0004146,-0000714,+0000414,-0002312,15:03:37.860322
0.220425,+0000033,-0000034,-0000030,+0000054,-0000085,+0004149,-0000736,+0000418,-0002298,15:03:37.860322
0.220758,+0000006,-0000027,+0000000,+0000061,-0000094,+0004140,-0000736,+0000418,-0002298,15:03:37.860322
0.221091,+0000016,-0000018,-0000013,+0000054,-0000088,+0004155,-0000736,+0000418,-0002298,15:03:37.860322
0.221424,+0000011,-0000016,-0000012,+0000035,-0000084,+0004166,-0000726,+0000400,-0002327,15:03:37.860322
0.221757,+0000000,-0000016,+0000008,+0000051,-0000087,+0004149,-0000726,+0000400,-0002327,15:03:37.860322
0.222090,+0000014,-0000031,-0000011,+0000057,-0000097,+0004166,-0000726,+0000400,-0002327,15:03:37.860322
0.222423,+0000030,-0000044,-0000003,+0000034,-0000089,+0004140,-0000720,+0000400,-0002323,15:03:37.860322
0.222756,+0000012,-0000026,-0000010,+0000042,-0000086,+0004164,-0000720,+0000400,-0002323,15:03:37.860322
0.223089,-0000003,-0000003,+0000003,+0000027,-0000064,+0004144,-0000720,+0000400,-0002323,15:03:37.860322
0.223422,+0000002,-0000005,-0000004,+0000039,-0000096,+0004156,-0000740,+0000416,-0002322,15:03:37.860322
0.223755,+0000022,-0000034,-0000014,+0000034,-0000086,+0004146,-0000740,+0000416,-0002322,15:03:37.860322
0.224088,+0000019,-0000030,-0000005,+0000031,-0000086,+0004138,-0000740,+0000416,-0002322,15:03:37.860322
0.224421,+0000025,-0000045,-0000021,+0000042,-0000091,+0004143,-0000726,+0000402,-0002312,15:03:37.860322
0.224754,+0000016,-0000023,-0000010,+0000054,-0000110,+0004142,-0000726,+0000402,-0002312,15:03:37.860322
0.225087,+0000005,-0000012,-0000005,+0000061,-0000076,+0004148,-0000726,+0000402,-0002312,15:03:37.860322
0.225420,+0000022,-0000019,-0000012,+0000045,-0000094,+0004156,-0000724,+0000426,-0002308,15:03:37.860322
0.225753,+0000008,-0000031,+0000003,+0000025,-0000104,+0004166,-0000724,+0000426,-0002308,15:03:37.860322
0.226086,+0000036,-0000042,-0000013,+0000031,-0000091,+0004149,-0000724,+0000426,-0002308,15:03:37.860322
0.226419,+0000008,-0000016,-0000014,+0000042,-0000076,+0004119,-0000724,+0000398,-0002319,15:03:37.860322
0.226752,+0000018,-0000024,-0000008,+0000040,-0000084,+0004149,-0000724,+0000398,-0002319,15:03:37.860322
0.227085,-0000003,-0000003,+0000006,+0000041,-0000065,+0004146,-0000724,+0000398,-0002319,15:03:37.860322
0.227418,+0000017,-0000026,-0000018,+0000058,-0000078,+0004160,-0000704,+0000396,-0002317,15:03:37.860322
0.227751,+0000013,-0000013,-0000002,+0000038,-0000091,+0004135,-0000704,+0000396,-0002317,15:03:37.860322
0.228084,+0000025,-0000034,-0000010,+0000027,-0000082,+0004166,-0000704,+0000396,-0002317,15:03:37.860322
0.228417,+0000019,-0000034,-0000005,+0000051,-0000092,+0004157,-0000726,+0000394,-0002310,15:03:37.860322
0.228750,+0000024,-0000019,-0000011,+0000039,-0000065,+0004171,-0000726,+0000394,-0002310,15:03:37.860322
0.229083,-0000005,-0000013,+0000005,+0000070,-0000087,+0004163,-0000726,+0000394,-0002310,15:03:37.860322
0.229416,+0000003,-0000019,-0000016,+0000049,-0000090,+0004145,-0000718,+0000408,-0002317,15:03:37.860322
0.229749,+0000016,-0000019,-0000005,+0000036,-0000076,+0004170,-0000718,+0000408,-0002317,15:03:37.860322
0.230082,+0000013,-0000029,-0000016,+0000033,-0000093,+0004157,-0000718,+0000408,-0002317,15:03:37.860322
0.230415,+0000022,-0000040,-0000018,+0000029,-0000075,+0004162,-0000736,+0000416,-0002312,15:03:37.860322
0.230748,-0000003,-0000018,-0000007,+0000025,-0000093,+0004156,-0000736,+0000416,-0002312,15:03:37.860322
0.231081,+0000016,-0000014,+0000003,+0000036,-0000123,+0004145,-0000736,+0000416,-0002312,15:03:37.860322
0.231415,+0000005,-0000002,+0000001,+0000039,-0000094,+0004178,-0000732,+0000398,-0002283,15:03:37.860322
0.231747,+0000011,-0000026,-0000007,+0000037,-0000082,+0004157,-0000732,+0000398,-0002283,15:03:37.860322
0.232080,+0000011,-0000034,-0000010,+0000041,-0000093,+0004142,-0000732,+0000398,-0002283,15:03:37.860322
0.232413,+0000020,-0000028,-0000005,+0000047,-0000084,+0004156,-0000726,+0000416,-0002320,15:03:37.860322
0.232746,+0000025,-0000024,-0000019,+0000039,-0000072,+0004148,-0000726,+0000416,-0002320,15:03:37.860322
0.233079,+0000007,-0000018,+0000008,+0000046,-0000090,+0004163,-0000726,+0000416,-0002320,15:03:37.860322
0.233412,+0000000,-0000013,+0000004,+0000032,-0000087,+0004132,-0000712,+0000430,-0002311,15:03:37.860322
0.233745,+0000028,-0000023,-0000023,+0000045,-0000077,+0004149,-0000712,+0000430,-0002311,15:03:37.860322
0.234078,+0000012,-0000052,-0000010,+0000051,-0000069,+0004156,-0000712,+0000430,-0002311,15:03:37.860322
0.234411,+0000013,-0000024,-0000002,+0000027,-0000080,+0004155,-0000710,+0000416,-0002323,15:03:37.860322
0.234744,+0000017,-0000013,-0000011,+0000020,-0000076,+0004148,-0000710,+0000416,-0002323,15:03:37.860322
0.235077,+0000005,+0000005,-0000005,+0000049,-0000088,+0004147,-0000710,+0000416,-0002323,15:03:37.860322
0.235410,+0000007,-0000016,+0000008,+0000045,-0000093,+0004141,-0000708,+0000408,-0002292,15:03:37.860322
0.235743,+0000041,-0000032,-0000015,+0000041,-0000098,+0004144,-0000708,+0000408,-0002292,15:03:37.860322
0.236076,+0000010,-0000029,-0000016,+0000058,-0000089,+0004175,-0000708,+0000408,-0002292,15:03:37.860322
0.236409,+0000013,-0000026,-0000002,+0000022,-0000076,+0004166,-0000728,+0000426,-0002295,15:03:37.860322
0.236742,-0000008,-0000002,-0000007,+0000048,-0000081,+0004140,-0000728,+0000426,-0002295,15:03:37.860322
0.237075,-0000002,-0000005,+0000000,+0000039,-0000092,+0004146,-0000728,+0000426,-0002295,15:03:37.860322
0.237408,+0000011,-0000026,-0000016,+0000039,-0000082,+0004149,-0000724,+0000412,-0002313,15:03:37.860322
0.237741,+0000019,-0000029,-0000016,+0000023,-0000088,+0004168,-0000724,+0000412,-0002313,15:03:37.860322
0.238074,+0000016,-0000031,-0000004,+0000046,-0000099,+0004173,-0000724,+0000412,-0002313,15:03:37.860322
0.238407,+0000019,-0000021,-0000004,+0000049,-0000099,+0004138,-0000714,+0000422,-0002319,15:03:37.860322
0.238740,+0000011,-0000015,-0000021,+0000042,-0000083,+0004137,-0000714,+0000422,-0002319,15:03:37.860322
0.239073,+0000006,-0000021,+0000004,+0000039,-0000087,+0004147,-0000714,+0000422,-0002319,15:03:37.860322
0.239406,+0000013,-0000015,-0000013,+0000050,-0000079,+0004134,-0000728,+0000414,-0002313,15:03:37.860322
0.239739,+0000008,-0000039,-0000005,+0000059,-0000098,+0004146,-0000728,+0000414,-0002313,15:03:37.860322
0.240072,+0000044,-0000021,-0000005,+0000058,-0000087,+0004146,-0000728,+0000414,-0002313,15:03:37.860322
0.240405,+0000019,-0000024,-0000002,+0000046,-0000082,+0004163,-0000726,+0000416,-0002327,15:03:37.860322
0.240738,-0000005,-0000015,-0000008,+0000038,-0000083,+0004137,-0000726,+0000416,-0002327,15:03:37.860322
0.241071,+0000019,-0000018,-0000013,+0000050,-0000089,+0004169,-0000726,+0000416,-0002327,15:03:37.860322
0.241404,+0000005,-0000019,+0000003,+0000021,-0000089,+0004152,-0000720,+0000414,-0002315,15:03:37.860322
0.241739,+0000028,-0000037,-0000010,+0000053,-0000081,+0004157,-0000720,+0000414,-0002315,15:03:37.860322
0.242071,+0000021,-0000039,-0000008,+0000020,-0000087,+0004171,-0000720,+0000414,-0002315,15:03:37.860322
0.242409,+0000014,-0000018,-0000016,+0000032,-0000100,+0004154,-0000718,+0000412,-0002313,15:03:37.860322
0.243097,+0000035,+0000003,+0000006,+0000032,-0000086,+0004163,-0000718,+0000412,-0002313,15:03:37.860322
0.243617,+0000010,+0000001,-0000010,+0000036,-0000088,+0004157,-0000718,+0000412,-0002313,15:03:37.860322
0.243801,+0000002,-0000018,+0000000,+0000029,-0000088,+0004157,-0000728,+0000422,-0002322,15:03:37.860322
0.244230,+0000009,-0000012,-0000003,+0000032,-0000082,+0004148,-0000728,+0000422,-0002322,15:03:37.860322
0.244433,+0000009,-0000012,-0000003,+0000032,-0000082,+0004148,-0000728,+0000422,-0002322,15:03:37.860322
0.244737,+0000024,-0000021,-0000019,+0000024,-0000069,+0004144,-0000708,+0000418,-0002304,15:03:37.860322
0.245069,+0000003,-0000024,-0000010,+0000031,-0000090,+0004152,-0000708,+0000418,-0002304,15:03:37.860322
0.245400,+0000027,-0000031,-0000008,+0000026,-0000087,+0004143,-0000708,+0000418,-0002304,15:03:37.860322
0.245734,+0000011,-0000024,-0000003,+0000028,-0000077,+0004151,-0000730,+0000406,-0002314,15:03:37.860322
0.246066,+0000019,-0000037,-0000018,+0000035,-0000088,+0004153,-0000730,+0000406,-0002314,15:03:37.860322
0.246399,+0000025,-0000010,-0000005,+0000040,-0000088,+0004145,-0000730,+0000406,-0002314,15:03:37.860322
0.246735,-0000008,-0000010,-0000013,+0000040,-0000091,+0004131,-0000734,+0000398,-0002295,15:03:37.860322
0.247065,+0000017,-0000023,-0000006,+0000020,-0000093,+0004154,-0000734,+0000398,-0002295,15:03:37.860322
0.247398,+0000013,-0000029,-0000015,+0000034,-0000071,+0004151,-0000734,+0000398,-0002295,15:03:37.860322
0.247731,+0000024,-0000034,-0000005,+0000033,-0000107,+0004139,-0000714,+0000396,-0002323,15:03:37.860322
0.248064,+0000021,-0000032,-0000019,+0000036,-0000111,+0004141,-0000714,+0000396,-0002323,15:03:37.860322
0.248397,+0000014,-0000005,-0000002,+0000035,-0000085,+0004146,-0000714,+0000396,-0002323,15:03:37.860322
0.248730,+0000011,+0000000,+0000000,+0000039,-0000103,+0004153,-0000724,+0000416,-0002311,15:03:37.860322
0.249063,+0000005,-0000032,-0000007,+0000047,-0000100,+0004137,-0000724,+0000416,-0002311,15:03:37.860322
0.249396,+0000027,-0000045,-0000016,+0000024,-0000083,+0004150,-0000724,+0000416,-0002311,15:03:37.860322
0.249729,+0000015,-0000035,+0000002,+0000042,-0000096,+0004177,-0000726,+0000408,-0002290,15:03:37.860322
0.250062,+0000019,-0000039,-0000019,+0000039,-0000072,+0004143,-0000726,+0000408,-0002290,15:03:37.860322
0.250395,+0000011,+0000004,-0000003,+0000050,-0000098,+0004169,-0000726,+0000408,-0002290,15:03:37.860322
0.250728,-0000003,-0000013,-0000010,+0000040,-0000067,+0004160,-0000732,+0000412,-0002326,15:03:37.860322
0.251061,+0000013,-0000025,-0000005,+0000059,-0000081,+0004159,-0000732,+0000412,-0002326,15:03:37.860322
0.251394,+0000018,-0000028,-0000006,+0000036,-0000087,+0004144,-0000732,+0000412,-0002326,15:03:37.860322
0.251727,+0000025,-0000036,-0000013,+0000053,-0000099,+0004148,-0000710,+0000404,-0002315,15:03:37.860322
0.252060,-0000003,-0000011,-0000007,+0000046,-0000079,+0004155,-0000710,+0000404,-0002315,15:03:37.860322
0.252393,+0000019,-0000018,-0000019,+0000036,-0000085,+0004146,-0000710,+0000404,-0002315,15:03:37.860322
0.252726,-0000002,-0000019,-0000002,+0000048,-0000072,+0004128,-0000712,+0000420,-0002341,15:03:37.860322
0.253059,+0000031,-0000029,-0000007,+0000046,-0000075,+0004141,-0000712,+0000420,-0002341,15:03:37.860322
0.253392,+0000027,-0000034,-0000012,+0000045,-0000086,+0004170,-0000712,+0000420,-0002341,15:03:37.860322
0.253725,+0000009,-0000024,-0000010,+0000032,-0000097,+0004147,-0000708,+0000402,-0002317,15:03:37.860322
0.254058,+0000006,-0000011,-0000010,+0000048,-0000087,+0004141,-0000708,+0000402,-0002317,15:03:37.860322
0.254391,+0000012,-0000008,-0000012,+0000049,-0000088,+0004138,-0000708,+0000402,-0002317,15:03:37.860322
0.254724,-0000006,-0000008,+0000003,+0000031,-0000105,+0004147,-0000708,+0000410,-0002301,15:03:37.860322
0.255057,+0000011,-0000026,-0000008,+0000038,-0000088,+0004150,-0000708,+0000410,-0002301,15:03:37.860322
0.255390,+0000025,-0000032,-0000012,+0000031,-0000096,+0004163,-0000708,+0000410,-0002301,15:03:37.860322
0.255723,+0000017,-0000027,-0000007,+0000032,-0000085,+0004141,-0000716,+0000412,-0002320,15:03:37.860322
0.256056,+0000014,-0000029,-0000011,+0000033,-0000075,+0004163,-0000716,+0000412,-0002320,15:03:37.860322
0.256389,+0000005,-0000015,+0000002,+0000046,-0000072,+0004134,-0000716,+0000412,-0002320,15:03:37.860322
0.256722,+0000002,-0000013,-0000005,+0000043,-0000104,+0004148,-0000708,+0000416,-0002324,15:03:37.861324
0.257055,+0000016,-0000034,-0000005,+0000053,-0000092,+0004154,-0000708,+0000416,-0002324,15:03:37.861324
0.257388,+0000014,-0000048,-0000010,+0000027,-0000089,+0004154,-0000708,+0000416,-0002324,15:03:37.861324
0.257721,+0000019,-0000023,-0000021,+0000045,-0000072,+0004160,-0000720,+0000410,-0002324,15:03:37.861324
0.258054,+0000003,-0000021,-0000013,+0000053,-0000083,+0004158,-0000720,+0000410,-0002324,15:03:37.861324
0.258387,+0000014,-0000010,-0000003,+0000044,-0000089,+0004146,-0000720,+0000410,-0002324,15:03:37.861324
0.258720,+0000002,-0000015,-0000013,+0000040,-0000079,+0004142,-0000736,+0000426,-0002305,15:03:37.861324
0.259053,+0000013,-0000019,-0000003,+0000023,-0000094,+0004145,-0000736,+0000426,-0002305,15:03:37.861324
0.259386,+0000019,-0000040,-0000011,+0000042,-0000102,+0004160,-0000736,+0000426,-0002305,15:03:37.861324
0.259719,+0000022,-0000014,-0000014,+0000051,-0000071,+0004139,-0000724,+0000428,-0002335,15:03:37.861324
0.260052,+0000002,-0000027,-0000005,+0000053,-0000080,+0004154,-0000724,+0000428,-0002335,15:03:37.861324
0.260385,+0000011,-0000012,-0000007,+0000025,-0000091,+0004177,-0000724,+0000428,-0002335,15:03:37.861324
0.260718,-0000009,-0000004,+0000009,+0000027,-0000115,+0004142,-0000710,+0000414,-0002294,15:03:37.861324
0.261051,+0000022,-0000032,-0000013,+0000032,-0000095,+0004145,-0000710,+0000414,-0002294,15:03:37.861324
0.261384,+0000035,-0000040,-0000010,+0000036,-0000081,+0004151,-0000710,+0000414,-0002294,15:03:37.861324
0.261718,+0000013,-0000036,-0000026,+0000033,-0000086,+0004166,-0000720,+0000414,-0002330,15:03:37.861324
0.262050,+0000011,-0000015,+0000001,+0000038,-0000101,+0004141,-0000720,+0000414,-0002330,15:03:37.861324
0.262383,+0000010,-0000005,-0000007,+0000041,-0000105,+0004155,-0000720,+0000414,-0002330,15:03:37.861324
0.262716,+0000014,-0000027,-0000012,+0000043,-0000079,+0004156,-0000714,+0000410,-0002296,15:03:37.861324
0.263049,+0000025,-0000031,-0000006,+0000036,-0000085,+0004165,-0000714,+0000410,-0002296,15:03:37.861324
0.263382,+0000038,-0000042,-0000011,+0000035,-0000065,+0004151,-0000714,+0000410,-0002296,15:03:37.861324
0.263715,+0000002,-0000027,-0000018,+0000031,-0000102,+0004143,-0000720,+0000400,-0002304,15:03:37.861324
0.264048,-0000015,+0000005,+0000001,+0000055,-0000092,+0004145,-0000720,+0000400,-0002304,15:03:37.861324
0.264381,+0000009,-0000007,-0000008,+0000055,-0000072,+0004159,-0000720,+0000400,-0002304,15:03:37.861324
0.264714,+0000019,-0000011,-0000008,+0000027,-0000095,+0004149,-0000726,+0000414,-0002323,15:03:37.861324
0.265047,+0000018,-0000059,-0000020,+0000038,-0000097,+0004171,-0000726,+0000414,-0002323,15:03:37.861324
0.265380,+0000014,-0000029,-0000008,+0000043,-0000089,+0004174,-0000726,+0000414,-0002323,15:03:37.862649
0.265713,+0000010,-0000015,-0000016,+0000053,-0000075,+0004149,-0000712,+0000418,-0002284,15:03:37.862649
0.266046,-0000011,-0000018,-0000007,+0000053,-0000095,+0004157,-0000712,+0000418,-0002284,15:03:37.862649
0.266379,+0000008,-0000007,-0000011,+0000033,-0000094,+0004153,-0000712,+0000418,-0002284,15:03:37.862649
0.266712,+0000020,-0000026,-0000002,+0000032,-0000079,+0004140,-0000730,+0000404,-0002301,15:03:37.862649
0.267045,+0000025,-0000029,-0000006,+0000031,-0000091,+0004158,-0000730,+0000404,-0002301,15:03:37.862649
0.267378,+0000016,-0000042,-0000015,+0000050,-0000103,+0004153,-0000730,+0000404,-0002301,15:03:37.862649
0.267711,+0000006,-0000011,-0000007,+0000032,-0000100,+0004140,-0000726,+0000422,-0002291,15:03:37.862649
0.268044,+0000011,-0000010,-0000006,+0000047,-0000088,+0004150,-0000726,+0000422,-0002291,15:03:37.862649
0.268377,+0000003,-0000019,-0000005,+0000024,-0000080,+0004140,-0000726,+0000422,-0002291,15:03:37.862649
0.268710,+0000025,-0000027,-0000010,+0000040,-0000074,+0004150,-0000714,+0000422,-0002330,15:03:37.862649
0.269043,+0000005,-0000022,-0000015,+0000022,-0000119,+0004135,-0000714,+0000422,-0002330,15:03:37.862649
0.269376,+0000017,-0000034,-0000024,+0000030,-0000072,+0004158,-0000714,+0000422,-0002330,15:03:37.862649
0.269709,+0000019,-0000008,+0000001,+0000052,-0000077,+0004140,-0000730,+0000412,-0002056,15:03:37.862649
0.270042,+0000003,-0000018,-0000018,+0000045,-0000087,+0004152,-0000730,+0000412,-0002056,15:03:37.862649
0.270375,+0000008,-0000008,-0000003,+0000033,-0000073,+0004159,-0000730,+0000412,-0002056,15:03:37.862649
0.270708,+0000016,-0000023,-0000013,+0000038,-0000075,+0004167,-0000714,+0000410,-0002327,15:03:37.862649
0.271041,+0000030,-0000013,-0000007,+0000056,-0000091,+0004160,-0000714,+0000410,-0002327,15:03:37.862649
0.271374,+0000014,-0000029,-0000011,+0000048,-0000084,+0004151,-0000714,+0000410,-0002327,15:03:37.862649
0.271707,+0000003,-0000025,-0000013,+0000051,-0000090,+0004147,-0000720,+0000416,-0002320,15:03:37.862649
0.272040,+0000006,-0000007,+0000001,+0000049,-0000098,+0004149,-0000720,+0000416,-0002320,15:03:37.862649
0.272373,+0000013,-0000021,-0000012,+0000042,-0000095,+0004141,-0000720,+0000416,-0002320,15:03:37.862649
0.272706,+0000020,-0000024,-0000002,+0000055,-0000096,+0004146,-0000720,+0000402,-0002293,15:03:37.862649
0.273039,+0000011,-0000020,+0000003,+0000070,-0000079,+0004144,-0000720,+0000402,-0002293,15:03:37.862649
0.273372,+0000030,-0000042,-0000018,+0000040,-0000083,+0004160,-0000720,+0000402,-0002293,15:03:37.862649
0.273705,+0000010,-0000020,+0000005,+0000027,-0000083,+0004138,-0000724,+0000400,-0002291,15:03:37.862649
0.274038,+0000011,-0000008,-0000014,+0000049,-0000100,+0004158,-0000724,+0000400,-0002291,15:03:37.862649
0.274371,+0000022,-0000018,-0000007,+0000049,-0000092,+0004162,-0000724,+0000400,-0002291,15:03:37.862649
0.274704,+0000020,-0000024,-0000013,+0000061,-0000081,+0004143,-0000728,+0000424,-0002276,15:03:37.862649
0.275037,+0000021,-0000032,-0000010,+0000042,-0000081,+0004141,-0000728,+0000424,-0002276,15:03:37.862649
0.275370,+0000027,-0000029,-0000016,+0000034,-0000090,+0004142,-0000728,+0000424,-0002276,15:03:37.862649
0.275703,+0000016,-0000027,-0000010,+0000033,-0000078,+0004142,-0000712,+0000426,-0002294,15:03:37.862649
0.276036,+0000002,-0000008,+0000001,+0000053,-0000116,+0004141,-0000712,+0000426,-0002294,15:03:37.862649
0.276369,+0000008,-0000026,-0000021,+0000028,-0000084,+0004146,-0000712,+0000426,-0002294,15:03:37.862649
0.276702,+0000024,-0000024,+0000003,+0000029,-0000062,+0004159,-0000710,+0000418,-0002314,15:03:37.862649
0.277035,+0000017,-0000034,-0000014,+0000042,-0000077,+0004163,-0000710,+0000418,-0002314,15:03:37.862649
0.277371,+0000033,-0000042,-0000014,+0000045,-0000100,+0004152,-0000710,+0000418,-0002314,15:03:37.862649
0.277707,+0000018,-0000022,-0000011,+0000048,-0000065,+0004155,-0000720,+0000408,-0002277,15:03:37.862649
0.278035,-0000001,-0000023,-0000002,+0000039,-0000089,+0004156,-0000720,+0000408,-0002277,15:03:37.862649
0.278370,+0000023,-0000032,-0000008,+0000029,-0000094,+0004156,-0000720,+0000408,-0002277,15:03:37.862649
0.278700,+0000020,-0000046,-0000006,+0000037,-0000083,+0004161,-0000710,+0000394,-0002299,15:03:37.862649
0.279034,+0000011,-0000029,-0000010,+0000042,-0000087,+0004154,-0000710,+0000394,-0002299,15:03:37.862649
0.279366,+0000019,-0000026,-0000010,+0000033,-0000087,+0004147,-0000710,+0000394,-0002299,15:03:37.862649
0.279702,+0000003,-0000005,-0000010,+0000041,-0000085,+0004161,-0000716,+0000428,-0002306,15:03:37.862649
0.280050,+0000027,-0000020,-0000005,+0000047,-0000087,+0004152,-0000716,+0000428,-0002306,15:03:37.862649
0.280365,+0000021,-0000034,-0000015,+0000044,-0000066,+0004160,-0000716,+0000428,-0002306,15:03:37.862649
0.280700,+0000017,-0000035,-0000008,+0000042,-0000090,+0004147,-0000718,+0000412,-0002319,15:03:37.863656
0.281032,+0000035,-0000027,-0000018,+0000026,-0000092,+0004145,-0000718,+0000412,-0002319,15:03:37.863656
0.281365,+0000018,-0000024,-0000007,+0000049,-0000075,+0004146,-0000718,+0000412,-0002319,15:03:37.863656
0.281698,+0000003,-0000012,-0000005,+0000033,-0000066,+0004149,-0000714,+0000398,-0002290,15:03:37.863656
0.282031,+0000029,-0000026,-0000026,+0000032,-0000087,+0004139,-0000714,+0000398,-0002290,15:03:37.863656
0.282363,+0000011,-0000023,+0000004,+0000056,-0000080,+0004140,-0000714,+0000398,-0002290,15:03:37.863656
0.282696,+0000022,-0000034,-0000027,+0000065,-0000093,+0004157,-0000730,+0000416,-0002330,15:03:37.863656
0.283029,+0000017,-0000030,-0000008,+0000037,-0000089,+0004157,-0000730,+0000416,-0002330,15:03:37.863656
0.283362,+0000008,-0000013,-0000018,+0000034,-0000087,+0004158,-0000730,+0000416,-0002330,15:03:37.863656
0.283695,+0000000,-0000020,-0000002,+0000061,-0000093,+0004153,-0000730,+0000430,-0002298,15:03:37.863656
0.284028,+0000009,-0000005,-0000007,+0000024,-0000083,+0004143,-0000730,+0000430,-0002298,15:03:37.863656
0.284361,+0000003,-0000024,-0000005,+0000052,-0000065,+0004160,-0000730,+0000430,-0002298,15:03:37.863656
0.284694,+0000022,-0000031,-0000023,+0000045,-0000072,+0004142,-0000720,+0000430,-0002296,15:03:37.863656
0.285027,+0000019,-0000039,+0000000,+0000021,-0000075,+0004150,-0000720,+0000430,-0002296,15:03:37.863656
0.285360,+0000020,-0000016,-0000021,+0000015,-0000096,+0004140,-0000720,+0000430,-0002296,15:03:37.863656
0.285693,-0000002,-0000013,-0000008,+0000045,-0000095,+0004134,-0000728,+0000418,-0002293,15:03:37.863656
0.286026,+0000013,-0000029,-0000016,+0000040,-0000089,+0004153,-0000728,+0000418,-0002293,15:03:37.863656
0.286359,+0000016,-0000029,-0000004,+0000039,-0000098,+0004153,-0000728,+0000418,-0002293,15:03:37.863656
0.286692,+0000025,-0000026,-0000011,+0000051,-0000074,+0004154,-0000712,+0000404,-0002285,15:03:37.863656
0.287025,+0000013,-0000030,-0000007,+0000044,-0000075,+0004141,-0000712,+0000404,-0002285,15:03:37.863656
0.287358,+0000009,-0000027,-0000012,+0000017,-0000085,+0004174,-0000712,+0000404,-0002285,15:03:37.863656
0.287691,+0000003,-0000008,-0000005,+0000039,-0000097,+0004161,-0000730,+0000406,-0002317,15:03:37.863656
0.288024,+0000006,-0000016,-0000004,+0000038,-0000090,+0004136,-0000730,+0000406,-0002317,15:03:37.863656
0.288357,+0000011,-0000015,-0000005,+0000043,-0000075,+0004156,-0000730,+0000406,-0002317,15:03:37.863656
0.288690,+0000035,-0000053,-0000013,+0000018,-0000074,+0004168,-0000722,+0000416,-0002305,15:03:37.863656
0.289023,+0000002,-0000012,+0000000,+0000040,-0000075,+0004151,-0000722,+0000416,-0002305,15:03:37.863656
0.289356,+0000017,-0000020,-0000018,+0000030,-0000083,+0004140,-0000722,+0000416,-0002305,15:03:37.863656
0.289689,+0000017,-0000021,+0000000,+0000035,-0000081,+0004145,-0000722,+0000418,-0002298,15:03:37.863656
0.290022,-0000008,-0000010,-0000005,+0000027,-0000071,+0004170,-0000722,+0000418,-0002298,15:03:37.863656
0.290355,+0000030,-0000037,-0000010,+0000048,-0000091,+0004159,-0000722,+0000418,-0002298,15:03:37.863656
0.290688,+0000024,-0000034,-0000003,+0000045,-0000077,+0004144,-0000714,+0000418,-0002319,15:03:37.863656
0.291021,+0000006,-0000039,-0000011,+0000037,-0000078,+0004141,-0000714,+0000418,-0002319,15:03:37.863656
0.291354,-0000009,-0000005,-0000010,+0000032,-0000104,+0004143,-0000714,+0000418,-0002319,15:03:37.863656
0.291689,+0000013,-0000007,+0000000,+0000057,-0000076,+0004132,-0000716,+0000416,-0002294,15:03:37.863656
0.292020,+0000005,-0000034,-0000008,+0000051,-0000107,+0004142,-0000716,+0000416,-0002294,15:03:37.863656
0.292358,+0000028,-0000024,-0000005,+0000037,-0000103,+0004147,-0000716,+0000416,-0002294,15:03:37.863656
0.292996,+0000014,-0000010,-0000008,+0000045,-0000078,+0004137,-0000724,+0000420,-0002315,15:03:37.863656
0.293275,-0000001,-0000010,-0000010,+0000046,-0000103,+0004161,-0000724,+0000420,-0002315,15:03:37.863656
0.293602,+0000011,-0000018,-0000004,+0000024,-0000083,+0004159,-0000724,+0000420,-0002315,15:03:37.863656
0.293780,+0000011,-0000018,-0000004,+0000024,-0000083,+0004159,-0000728,+0000418,-0002326,15:03:37.863656
0.294094,+0000020,-0000027,-0000005,+0000028,-0000089,+0004137,-0000728,+0000418,-0002326,15:03:37.863656
0.294353,+0000017,-0000026,-0000005,+0000028,-0000106,+0004147,-0000728,+0000418,-0002326,15:03:37.863656
0.294687,+0000010,-0000015,+0000006,+0000042,-0000102,+0004139,-0000742,+0000408,-0002281,15:03:37.863656
0.295141,-0000003,-0000028,-0000019,+0000033,-0000102,+0004150,-0000742,+0000408,-0002281,15:03:37.863656
0.295350,+0000011,-0000013,+0000006,+0000046,-0000089,+0004135,-0000742,+0000408,-0002281,15:03:37.863656
0.295683,+0000022,-0000024,-0000011,+0000032,-0000080,+0004155,-0000726,+0000416,-0002309,15:03:37.863656
0.296016,+0000013,-0000010,-0000013,+0000038,-0000085,+0004152,-0000726,+0000416,-0002309,15:03:37.863656
0.296349,+0000019,-0000029,-0000005,+0000042,-0000072,+0004166,-0000726,+0000416,-0002309,15:03:37.863656
0.296682,+0000016,-0000029,-0000015,+0000043,-0000077,+0004147,-0000728,+0000422,-0002301,15:03:37.863656
0.297076,+0000008,-0000012,-0000007,+0000037,-0000077,+0004160,-0000728,+0000422,-0002301,15:03:37.863656
0.297350,+0000005,-0000027,-0000018,+0000045,-0000085,+0004148,-0000728,+0000422,-0002301,15:03:37.863656
0.297685,+0000030,-0000034,-0000007,+0000039,-0000092,+0004129,-0000724,+0000428,-0002290,15:03:37.863656
0.298015,+0000020,-0000034,-0000015,+0000035,-0000102,+0004146,-0000724,+0000428,-0002290,15:03:37.863656
0.298350,+0000020,-0000029,-0000010,+0000035,-0000082,+0004157,-0000724,+0000428,-0002290,15:03:37.863656
0.298682,+0000014,-0000026,-0000016,+0000037,-0000086,+0004163,-0000712,+0000406,-0002292,15:03:37.863656
0.299014,+0000021,-0000023,-0000013,+0000043,-0000079,+0004148,-0000712,+0000406,-0002292,15:03:37.863656
0.299347,-0000006,-0000028,-0000008,+0000028,-0000081,+0004172,-0000712,+0000406,-0002292,15:03:37.863656
0.299679,+0000014,+0000001,-0000002,+0000033,-0000086,+0004148,-0000710,+0000422,-0002323,15:03:37.863656
0.300012,+0000013,-0000017,-0000013,+0000026,-0000072,+0004148,-0000710,+0000422,-0002323,15:03:37.863656
0.300346,+0000027,-0000047,-0000010,+0000055,-0000098,+0004155,-0000710,+0000422,-0002323,15:03:37.863656
0.300679,+0000011,-0000015,-0000007,+0000046,-0000076,+0004160,-0000728,+0000410,-0002319,15:03:37.863656
0.301011,+0000017,-0000028,-0000021,+0000041,-0000089,+0004146,-0000728,+0000410,-0002319,15:03:37.864654
0.301346,-0000001,-0000029,-0000002,+0000037,-0000101,+0004167,-0000728,+0000410,-0002319,15:03:37.864654
0.301678,+0000006,+0000004,-0000011,+0000038,-0000079,+0004152,-0000716,+0000418,-0002294,15:03:37.864654
0.302010,+0000013,-0000018,-0000006,+0000046,-0000083,+0004154,-0000716,+0000418,-0002294,15:03:37.864654
0.302343,+0000027,-0000043,-0000013,+0000027,-0000078,+0004173,-0000716,+0000418,-0002294,15:03:37.864654
0.302676,+0000019,-0000018,-0000007,+0000028,-0000076,+0004135,-0000726,+0000418,-0002281,15:03:37.864654
0.303009,+0000002,-0000028,-0000021,+0000061,-0000080,+0004165,-0000726,+0000418,-0002281,15:03:37.864654
0.303342,+0000011,-0000016,-0000016,+0000045,-0000082,+0004148,-0000726,+0000418,-0002281,15:03:37.864654
0.303675,-0000008,-0000010,+0000003,+0000047,-0000105,+0004166,-0000732,+0000418,-0002285,15:03:37.864654
0.304008,+0000032,-0000030,-0000004,+0000050,-0000084,+0004170,-0000732,+0000418,-0002285,15:03:37.864654
0.304341,+0000016,-0000044,-0000011,+0000026,-0000100,+0004148,-0000732,+0000418,-0002285,15:03:37.864654
0.304674,+0000027,-0000034,-0000017,+0000036,-0000086,+0004153,-0000722,+0000410,-0002300,15:03:37.864654
0.305007,+0000001,-0000005,-0000006,+0000030,-0000075,+0004157,-0000722,+0000410,-0002300,15:03:37.864654
0.305340,-0000011,-0000008,-0000002,+0000043,-0000099,+0004142,-0000722,+0000410,-0002300,15:03:37.864654
0.305673,+0000022,-0000026,-0000007,+0000037,-0000089,+0004157,-0000720,+0000428,-0002305,15:03:37.864654
0.306006,+0000024,-0000029,-0000018,+0000058,-0000102,+0004144,-0000720,+0000428,-0002305,15:03:37.864654
0.306339,+0000021,-0000039,-0000010,+0000039,-0000080,+0004137,-0000720,+0000428,-0002305,15:03:37.864654
0.306672,+0000022,-0000011,+0000004,+0000042,-0000105,+0004149,-0000716,+0000410,-0002302,15:03:37.864654
0.307005,+0000007,-0000012,-0000021,+0000022,-0000101,+0004165,-0000716,+0000410,-0002302,15:03:37.864654
0.307338,+0000014,-0000011,-0000002,+0000064,-0000093,+0004145,-0000716,+0000410,-0002302,15:03:37.864654
0.307671,+0000016,-0000027,-0000005,+0000047,-0000091,+0004145,-0000726,+0000418,-0002329,15:03:37.864654
0.308005,+0000014,-0000026,-0000007,+0000052,-0000081,+0004164,-0000726,+0000418,-0002329,15:03:37.864654
0.308337,+0000024,-0000024,-0000014,+0000050,-0000097,+0004157,-0000726,+0000418,-0002329,15:03:37.864654
0.308670,-0000006,-0000010,-0000004,+0000053,-0000087,+0004157,-0000722,+0000402,-0002311,15:03:37.864654
0.309003,+0000017,-0000018,-0000015,+0000048,-0000112,+0004152,-0000722,+0000402,-0002311,15:03:37.864654
0.309336,-0000003,-0000013,+0000000,+0000044,-0000091,+0004156,-0000722,+0000402,-0002311,15:03:37.864654
0.309669,+0000005,-0000018,-0000008,+0000035,-0000097,+0004166,-0000738,+0000414,-0002292,15:03:37.864654
0.310002,+0000009,-0000031,-0000014,+0000060,-0000082,+0004144,-0000738,+0000414,-0002292,15:03:37.864654
0.310335,+0000022,-0000019,-0000008,+0000041,-0000072,+0004148,-0000738,+0000414,-0002292,15:03:37.864654
0.310668,+0000008,-0000019,+0000001,+0000050,-0000083,+0004153,-0000722,+0000404,-0002332,15:03:37.864654
0.311001,+0000010,-0000019,-0000013,+0000043,-0000085,+0004139,-0000722,+0000404,-0002332,15:03:37.865655
0.311334,+0000018,-0000008,-0000011,+0000043,-0000081,+0004153,-0000722,+0000404,-0002332,15:03:37.865655
0.311667,+0000011,-0000026,-0000011,+0000052,-0000086,+0004148,-0000728,+0000420,-0002283,15:03:37.865655
0.312000,+0000020,-0000036,-0000013,+0000034,-0000095,+0004144,-0000728,+0000420,-0002283,15:03:37.865655
0.312333,+0000019,-0000037,-0000008,+0000027,-0000070,+0004145,-0000728,+0000420,-0002283,15:03:37.865655
0.312666,+0000016,-0000023,-0000010,+0000045,-0000091,+0004147,-0000738,+0000408,-0002315,15:03:37.865655
0.312999,+0000002,-0000002,-0000010,+0000035,-0000101,+0004152,-0000738,+0000408,-0002315,15:03:37.865655
0.313332,+0000013,-0000024,-0000006,+0000033,-0000083,+0004166,-0000738,+0000408,-0002315,15:03:37.865655
0.313665,+0000011,-0000013,+0000006,+0000034,-0000086,+0004159,-0000732,+0000420,-0002305,15:03:37.865655
0.313998,+0000020,-0000034,-0000008,+0000042,-0000078,+0004148,-0000732,+0000420,-0002305,15:03:37.865655
0.314331,+0000014,-0000032,-0000019,+0000043,-0000073,+0004163,-0000732,+0000420,-0002305,15:03:37.865655
0.314664,+0000016,-0000020,-0000010,+0000050,-0000097,+0004151,-0000732,+0000426,-0002311,15:03:37.865655
0.314997,+0000000,-0000023,+0000003,+0000039,-0000090,+0004145,-0000732,+0000426,-0002311,15:03:37.865655
0.315330,+0000006,+0000000,-0000002,+0000043,-0000096,+0004152,-0000732,+0000426,-0002311,15:03:37.865655
0.315663,+0000020,-0000034,-0000010,+0000043,-0000086,+0004144,-0000728,+0000416,-0002294,15:03:37.865655
0.315996,+0000019,-0000042,-0000021,+0000036,-0000098,+0004145,-0000728,+0000416,-0002294,15:03:37.865655
0.316329,+0000021,-0000026,-0000015,+0000044,-0000074,+0004166,-0000728,+0000416,-0002294,15:03:37.865655
0.316662,+0000008,-0000015,+0000003,+0000040,-0000100,+0004132,-0000734,+0000412,-0002312,15:03:37.865655
0.316995,-0000019,+0000012,+0000003,+0000030,-0000076,+0004151,-0000734,+0000412,-0002312,15:03:37.865655
0.317328,+0000013,-0000016,-0000001,+0000029,-0000099,+0004146,-0000734,+0000412,-0002312,15:03:37.865655
0.317661,+0000025,-0000045,-0000021,+0000038,-0000085,+0004146,-0000710,+0000418,-0002311,15:03:37.865655
0.317994,+0000020,-0000034,+0000003,+0000047,-0000088,+0004169,-0000710,+0000418,-0002311,15:03:37.866655
0.318327,+0000030,-0000037,-0000026,+0000050,-0000074,+0004149,-0000710,+0000418,-0002311,15:03:37.866655
0.318660,-0000006,+0000006,+0000005,+0000036,-0000090,+0004124,-0000712,+0000420,-0002331,15:03:37.866655
0.318993,+0000011,-0000003,-0000011,+0000057,-0000114,+0004147,-0000712,+0000420,-0002331,15:03:37.866655
0.319326,+0000016,-0000024,-0000010,+0000043,-0000097,+0004157,-0000712,+0000420,-0002331,15:03:37.866655
0.319659,+0000016,-0000032,-0000008,+0000046,-0000094,+0004149,-0000728,+0000416,-0002309,15:03:37.866655
0.319992,+0000030,-0000032,-0000007,+0000026,-0000085,+0004155,-0000728,+0000416,-0002309,15:03:37.866655
0.320325,+0000005,-0000015,-0000007,+0000057,-0000094,+0004136,-0000728,+0000416,-0002309,15:03:37.866655
0.320658,+0000005,-0000019,-0000016,+0000044,-0000086,+0004141,-0000718,+0000426,-0002323,15:03:37.866655
0.320991,+0000016,-0000007,+0000001,+0000030,-0000106,+0004143,-0000718,+0000426,-0002323,15:03:37.866655
0.321324,+0000000,-0000023,-0000010,+0000045,-0000101,+0004153,-0000718,+0000426,-0002323,15:03:37.866655
0.321657,+0000032,-0000039,-0000008,+0000041,-0000092,+0004161,-0000716,+0000408,-0002315,15:03:37.866655
0.321990,+0000010,-0000019,-0000012,+0000055,-0000100,+0004155,-0000716,+0000408,-0002315,15:03:37.866655
0.322323,+0000009,-0000020,-0000010,+0000043,-0000075,+0004151,-0000716,+0000408,-0002315,15:03:37.866655
0.322656,+0000010,-0000008,-0000007,+0000035,-0000099,+0004180,-0000736,+0000408,-0002317,15:03:37.866655
0.322989,+0000007,-0000014,-0000005,+0000051,-0000098,+0004167,-0000736,+0000408,-0002317,15:03:37.866655
0.323322,+0000003,-0000024,-0000010,+0000036,-0000071,+0004138,-0000736,+0000408,-0002317,15:03:37.866655
0.323655,+0000023,-0000028,-0000022,+0000028,-0000093,+0004147,-0000736,+0000404,-0002308,15:03:37.866655
0.323988,+0000019,-0000027,-0000002,+0000023,-0000097,+0004158,-0000736,+0000404,-0002308,15:03:37.866655
0.324321,+0000008,-0000029,-0000015,+0000039,-0000088,+0004169,-0000736,+0000404,-0002308,15:03:37.866655
0.324654,+0000014,-0000013,-0000015,+0000028,-0000102,+0004164,-0000736,+0000426,-0002321,15:03:37.866655
0.324987,+0000008,-0000012,+0000005,+0000018,-0000086,+0004170,-0000736,+0000426,-0002321,15:03:37.866655
0.325320,+0000009,-0000026,-0000007,+0000038,-0000076,+0004149,-0000736,+0000426,-0002321,15:03:37.867654
0.325653,+0000025,-0000032,-0000012,+0000045,-0000071,+0004139,-0000724,+0000418,-0002297,15:03:37.867654
0.325986,+0000005,-0000023,-0000008,+0000036,-0000081,+0004151,-0000724,+0000418,-0002297,15:03:37.867654
0.326319,+0000014,-0000018,-0000016,+0000031,-0000087,+0004158,-0000724,+0000418,-0002297,15:03:37.867654
0.326652,-0000003,-0000014,-0000005,+0000031,-0000083,+0004183,-0000734,+0000414,-0002307,15:03:37.867654
0.326985,+0000008,-0000022,-0000003,+0000031,-0000086,+0004158,-0000734,+0000414,-0002307,15:03:37.867654
0.327318,+0000010,-0000018,-0000005,+0000035,-0000090,+0004166,-0000734,+0000414,-0002307,15:03:37.867654
0.327651,+0000019,-0000030,-0000002,+0000031,-0000094,+0004155,-0000726,+0000392,-0002303,15:03:37.867654
0.327984,+0000010,-0000022,-0000026,+0000039,-0000072,+0004153,-0000726,+0000392,-0002303,15:03:37.867654
0.328317,+0000016,-0000021,-0000006,+0000044,-0000096,+0004153,-0000726,+0000392,-0002303,15:03:37.867654
0.328650,+0000005,-0000016,-0000002,+0000041,-0000083,+0004170,-0000734,+0000400,-0002309,15:03:37.867654
0.328983,+0000010,-0000018,+0000001,+0000047,-0000075,+0004168,-0000734,+0000400,-0002309,15:03:37.867654
0.329316,+0000014,-0000021,-0000005,+0000054,-0000091,+0004147,-0000734,+0000400,-0002309,15:03:37.867654
0.329649,+0000012,-0000042,-0000018,+0000053,-0000076,+0004156,-0000732,+0000418,-0002313,15:03:37.867654
0.329982,+0000028,-0000021,-0000004,+0000038,-0000079,+0004160,-0000732,+0000418,-0002313,15:03:37.867654
0.330315,+0000003,-0000028,-0000011,+0000056,-0000092,+0004138,-0000732,+0000418,-0002313,15:03:37.867654
0.330648,-0000003,+0000000,+0000001,+0000056,-0000104,+0004161,-0000728,+0000406,-0002277,15:03:37.867654
0.330981,+0000016,-0000011,-0000008,+0000061,-0000082,+0004170,-0000728,+0000406,-0002277,15:03:37.867654
0.331314,+0000024,-0000042,-0000026,+0000059,-0000091,+0004148,-0000728,+0000406,-0002277,15:03:37.867654
0.331647,+0000008,-0000036,+0000006,+0000029,-0000085,+0004149,-0000708,+0000412,-0002269,15:03:37.867654
0.331980,+0000020,-0000034,-0000015,+0000036,-0000056,+0004161,-0000708,+0000412,-0002269,15:03:37.867654
0.332313,-0000005,+0000000,-0000008,+0000036,-0000066,+0004151,-0000708,+0000412,-0002269,15:03:37.867654
0.332646,+0000005,-0000011,+0000001,+0000047,-0000101,+0004150,-0000734,+0000420,-0002310,15:03:37.867654
0.332979,+0000019,-0000027,-0000007,+0000031,-0000086,+0004156,-0000734,+0000420,-0002310,15:03:37.867654
0.333312,+0000011,-0000019,-0000010,+0000052,-0000086,+0004138,-0000734,+0000420,-0002310,15:03:37.867654
0.333645,+0000033,-0000050,-0000016,+0000050,-0000088,+0004140,-0000718,+0000410,-0002289,15:03:37.867654
0.333978,+0000017,-0000016,-0000011,+0000034,-0000082,+0004158,-0000718,+0000410,-0002289,15:03:37.867654
0.334311,-0000011,-0000012,-0000005,+0000042,-0000087,+0004174,-0000718,+0000410,-0002289,15:03:37.867654
0.334644,+0000020,-0000029,-0000016,+0000051,-0000075,+0004162,-0000732,+0000402,-0002282,15:03:37.867654
0.334977,+0000013,-0000021,+0000012,+0000048,-0000084,+0004147,-0000732,+0000402,-0002282,15:03:37.867654
0.335310,+0000022,-0000030,-0000010,+0000057,-0000089,+0004170,-0000732,+0000402,-0002282,15:03:37.867654
0.335643,+0000028,-0000013,-0000014,+0000047,-0000092,+0004142,-0000742,+0000402,-0002334,15:03:37.867654
0.335976,+0000006,-0000019,-0000010,+0000045,-0000076,+0004154,-0000742,+0000402,-0002334,15:03:37.867654
0.336309,+0000011,-0000018,-0000014,+0000058,-0000092,+0004154,-0000742,+0000402,-0002334,15:03:37.867654
0.336642,+0000011,-0000002,+0000000,+0000031,-0000094,+0004155,-0000730,+0000412,-0002301,15:03:37.868656
0.336975,+0000019,-0000024,-0000015,+0000048,-0000092,+0004151,-0000730,+0000412,-0002301,15:03:37.868656
0.337308,+0000022,-0000037,-0000011,+0000048,-0000104,+0004152,-0000730,+0000412,-0002301,15:03:37.868656
0.337641,+0000013,-0000038,-0000018,+0000025,-0000102,+0004150,-0000732,+0000406,-0002314,15:03:37.868656
0.337974,+0000019,-0000015,-0000010,+0000036,-0000079,+0004138,-0000732,+0000406,-0002314,15:03:37.868656
0.338307,+0000019,-0000012,-0000010,+0000044,-0000092,+0004144,-0000732,+0000406,-0002314,15:03:37.868656
0.338640,+0000000,-0000007,-0000003,+0000040,-0000082,+0004137,-0000734,+0000416,-0002328,15:03:37.868656
0.338973,+0000017,-0000023,-0000007,+0000047,-0000083,+0004165,-0000734,+0000416,-0002328,15:03:37.868656
0.339306,+0000033,-0000032,-0000011,+0000038,-0000100,+0004119,-0000734,+0000416,-0002328,15:03:37.868656
0.339639,+0000014,-0000021,-0000010,+0000022,-0000062,+0004170,-0000734,+0000416,-0002327,15:03:37.868656
0.339972,+0000019,-0000018,-0000010,+0000042,-0000095,+0004165,-0000734,+0000416,-0002327,15:03:37.868656
0.340305,+0000002,-0000010,-0000005,+0000048,-0000105,+0004147,-0000734,+0000416,-0002327,15:03:37.868656
0.340638,+0000000,-0000011,-0000005,+0000024,-0000085,+0004164,-0000730,+0000412,-0002301,15:03:37.868656
0.340971,+0000024,-0000028,-0000010,+0000051,-0000095,+0004160,-0000730,+0000412,-0002301,15:03:37.868656
0.341304,+0000006,-0000021,+0000003,+0000031,-0000072,+0004160,-0000730,+0000412,-0002301,15:03:37.868656
0.341637,+0000022,-0000032,-0000022,+0000023,-0000066,+0004163,-0000730,+0000414,-0002309,15:03:37.868656
0.341973,+0000003,-0000019,+0000002,+0000030,-0000084,+0004178,-0000730,+0000414,-0002309,15:03:37.868656
0.342310,+0000009,-0000023,-0000008,+0000042,-0000093,+0004156,-0000730,+0000414,-0002309,15:03:37.868656
0.343013,+0000011,-0000018,-0000008,+0000043,-0000090,+0004141,-0000724,+0000416,-0002282,15:03:37.868656
0.343543,+0000006,-0000018,-0000008,+0000058,-0000094,+0004159,-0000724,+0000416,-0002282,15:03:37.868656
0.343717,+0000006,-0000018,-0000005,+0000039,-0000077,+0004163,-0000724,+0000416,-0002282,15:03:37.868656
0.344194,+0000008,-0000015,-0000004,+0000042,-0000097,+0004158,-0000742,+0000414,-0002293,15:03:37.868656
0.344532,+0000025,-0000031,-0000013,+0000038,-0000094,+0004167,-0000742,+0000414,-0002293,15:03:37.868656
0.344675,+0000008,-0000008,-0000005,+0000038,-0000094,+0004167,-0000742,+0000414,-0002293,15:03:37.868656
0.344970,+0000024,-0000028,-0000011,+0000040,-0000086,+0004170,-0000732,+0000416,-0002307,15:03:37.868656
0.345301,+0000009,-0000018,+0000004,+0000048,-0000091,+0004167,-0000732,+0000416,-0002307,15:03:37.868656
0.345638,+0000019,-0000034,-0000007,+0000055,-0000082,+0004144,-0000732,+0000416,-0002307,15:03:37.868656
0.345966,+0000005,-0000023,+0000003,+0000038,-0000099,+0004167,-0000716,+0000422,-0002308,15:03:37.868656
0.346299,+0000008,-0000010,-0000013,+0000037,-0000086,+0004155,-0000716,+0000422,-0002308,15:03:37.868656
0.346634,+0000014,-0000027,-0000002,+0000035,-0000096,+0004152,-0000716,+0000422,-0002308,15:03:37.868656
0.346966,+0000009,-0000026,-0000003,+0000042,-0000087,+0004155,-0000720,+0000418,-0002309,15:03:37.868656
0.347299,+0000038,-0000042,-0000005,+0000042,-0000081,+0004155,-0000720,+0000418,-0002309,15:03:37.868656
0.347632,+0000000,-0000030,-0000010,+0000033,-0000098,+0004152,-0000720,+0000418,-0002309,15:03:37.868656
0.347966,+0000011,-0000015,-0000013,+0000035,-0000082,+0004150,-0000738,+0000406,-0002302,15:03:37.868656
0.348299,+0000011,-0000018,-0000007,+0000048,-0000089,+0004149,-0000738,+0000406,-0002302,15:03:37.868656
0.348630,+0000015,-0000022,-0000016,+0000033,-0000098,+0004156,-0000738,+0000406,-0002302,15:03:37.868656
0.348963,+0000024,-0000029,-0000003,+0000053,-0000080,+0004150,-0000720,+0000416,-0002308,15:03:37.868656
0.349298,+0000021,-0000016,-0000011,+0000070,-0000106,+0004149,-0000720,+0000416,-0002308,15:03:37.868656
0.349629,-0000008,-0000005,-0000014,+0000045,-0000103,+0004161,-0000720,+0000416,-0002308,15:03:37.868656
0.349962,+0000010,-0000018,-0000013,+0000036,-0000098,+0004145,-0000704,+0000408,-0002290,15:03:37.868656
0.350295,+0000002,-0000019,-0000002,+0000039,-0000105,+0004158,-0000704,+0000408,-0002290,15:03:37.868656
0.350628,+0000011,-0000019,+0000001,+0000042,-0000109,+0004148,-0000704,+0000408,-0002290,15:03:37.868656
0.350961,+0000033,-0000039,-0000002,+0000056,-0000090,+0004142,-0000726,+0000408,-0002300,15:03:37.868656
0.351294,+0000030,-0000032,-0000026,+0000045,-0000093,+0004126,-0000726,+0000408,-0002300,15:03:37.868656
0.351627,+0000000,-0000023,-0000002,+0000038,-0000078,+0004158,-0000726,+0000408,-0002300,15:03:37.868656
0.351960,+0000008,-0000011,-0000007,+0000036,-0000080,+0004142,-0000732,+0000414,-0002263,15:03:37.868656
0.352293,+0000009,-0000011,-0000010,+0000031,-0000090,+0004175,-0000732,+0000414,-0002263,15:03:37.868656
0.352626,+0000011,-0000028,-0000002,+0000007,-0000066,+0004158,-0000732,+0000414,-0002263,15:03:37.868656
0.352959,+0000016,-0000024,-0000007,+0000024,-0000095,+0004147,-0000722,+0000412,-0002295,15:03:37.868656
0.353292,+0000022,-0000042,-0000016,+0000045,-0000072,+0004150,-0000722,+0000412,-0002295,15:03:37.868656
0.353625,+0000010,-0000032,-0000013,+0000015,-0000097,+0004148,-0000722,+0000412,-0002295,15:03:37.868656
0.353958,-0000002,-0000013,+0000003,+0000021,-0000094,+0004143,-0000738,+0000418,-0002285,15:03:37.868656
0.354291,+0000014,-0000010,-0000013,+0000041,-0000077,+0004132,-0000738,+0000418,-0002285,15:03:37.868656
0.354624,+0000020,-0000024,-0000016,+0000051,-0000089,+0004141,-0000738,+0000418,-0002285,15:03:37.868656
0.354957,+0000022,-0000039,-0000010,+0000032,-0000059,+0004158,-0000734,+0000408,-0002309,15:03:37.868656
0.355290,+0000011,-0000016,-0000007,+0000032,-0000078,+0004133,-0000734,+0000408,-0002309,15:03:37.868656
0.355623,+0000025,-0000026,-0000016,+0000052,-0000086,+0004144,-0000734,+0000408,-0002309,15:03:37.868656
0.355956,-0000006,-0000018,-0000007,+0000023,-0000084,+0004163,-0000722,+0000406,-0002276,15:03:37.868656
0.356289,+0000002,-0000013,-0000002,+0000038,-0000096,+0004155,-0000722,+0000406,-0002276,15:03:37.868656
0.356622,+0000021,-0000032,-0000010,+0000042,-0000096,+0004163,-0000722,+0000406,-0002276,15:03:37.868656
0.356955,+0000013,-0000029,-0000007,+0000023,-0000089,+0004154,-0000734,+0000404,-0002303,15:03:37.868656
0.357289,+0000024,-0000039,-0000013,+0000021,-0000088,+0004148,-0000734,+0000404,-0002303,15:03:37.868656
0.357621,+0000008,-0000019,-0000013,+0000042,-0000085,+0004141,-0000734,+0000404,-0002303,15:03:37.868656
0.357954,-0000005,-0000002,-0000011,+0000046,-0000091,+0004140,-0000722,+0000430,-0002278,15:03:37.868656
0.358289,+0000006,-0000018,-0000007,+0000040,-0000101,+0004131,-0000722,+0000430,-0002278,15:03:37.868656
0.358620,+0000017,-0000035,-0000008,+0000036,-0000091,+0004147,-0000722,+0000430,-0002278,15:03:37.868656
0.358953,+0000023,-0000029,-0000003,+0000035,-0000090,+0004153,-0000718,+0000408,-0002301,15:03:37.868656
0.359289,+0000024,-0000049,-0000015,+0000050,-0000077,+0004150,-0000718,+0000408,-0002301,15:03:37.868656
0.359619,+0000016,-0000001,-0000010,+0000043,-0000055,+0004139,-0000718,+0000408,-0002301,15:03:37.868656
0.359952,-0000002,-0000011,-0000007,+0000027,-0000090,+0004163,-0000720,+0000412,-0002315,15:03:37.868656
0.360290,+0000006,-0000013,-0000005,+0000036,-0000086,+0004150,-0000720,+0000412,-0002315,15:03:37.868656
0.360618,+0000020,-0000024,-0000008,+0000044,-0000089,+0004158,-0000720,+0000412,-0002315,15:03:37.868656
0.360951,+0000022,-0000024,-0000003,+0000034,-0000073,+0004131,-0000718,+0000420,-0002290,15:03:37.868656
0.361289,+0000021,-0000020,-0000012,+0000054,-0000066,+0004150,-0000718,+0000420,-0002290,15:03:37.868656
0.361617,+0000013,-0000013,-0000002,+0000018,-0000077,+0004155,-0000718,+0000420,-0002290,15:03:37.868656
0.361950,+0000008,-0000006,-0000002,+0000028,-0000096,+0004160,-0000736,+0000418,-0002310,15:03:37.868656
0.362288,+0000009,-0000034,-0000013,+0000053,-0000073,+0004136,-0000736,+0000418,-0002310,15:03:37.868656
0.362616,+0000011,-0000019,+0000005,+0000040,-0000090,+0004166,-0000736,+0000418,-0002310,15:03:37.868656
0.362949,+0000038,-0000027,-0000007,+0000047,-0000104,+0004163,-0000724,+0000422,-0002320,15:03:37.868656
0.363287,+0000013,-0000016,-0000010,+0000042,-0000068,+0004159,-0000724,+0000422,-0002320,15:03:37.868656
0.363615,+0000013,-0000027,-0000005,+0000044,-0000087,+0004152,-0000724,+0000422,-0002320,15:03:37.868656
0.363948,+0000008,-0000009,-0000005,+0000037,-0000073,+0004150,-0000736,+0000426,-0002301,15:03:37.868656
0.364286,+0000016,-0000033,-0000005,+0000051,-0000065,+0004133,-0000736,+0000426,-0002301,15:03:37.868656
0.364614,+0000030,-0000027,-0000012,+0000061,-0000086,+0004173,-0000736,+0000426,-0002301,15:03:37.868656
0.364947,+0000013,-0000022,+0000000,+0000047,-0000080,+0004153,-0000716,+0000432,-0002345,15:03:37.868656
0.365285,+0000008,-0000018,-0000016,+0000030,-0000085,+0004166,-0000716,+0000432,-0002345,15:03:37.868656
0.365613,+0000013,-0000019,-0000010,+0000027,-0000088,+0004136,-0000716,+0000432,-0002345,15:03:37.868656
0.365946,+0000019,-0000021,-0000007,+0000024,-0000084,+0004146,-0000730,+0000418,-0002297,15:03:37.868656
0.366282,+0000006,-0000023,+0000000,+0000025,-0000102,+0004163,-0000730,+0000418,-0002297,15:03:37.868656
0.366612,+0000027,-0000042,-0000016,+0000026,-0000094,+0004154,-0000730,+0000418,-0002297,15:03:37.868656
0.366945,+0000010,-0000026,+0000001,+0000033,-0000077,+0004148,-0000734,+0000430,-0002300,15:03:37.868656
0.367282,+0000011,-0000028,-0000016,+0000023,-0000089,+0004145,-0000734,+0000430,-0002300,15:03:37.868656
0.367611,+0000006,-0000013,-0000008,+0000035,-0000064,+0004147,-0000734,+0000430,-0002300,15:03:37.868656
0.367944,+0000013,-0000026,-0000007,+0000017,-0000087,+0004140,-0000734,+0000426,-0002303,15:03:37.868656
0.368281,+0000003,-0000024,-0000015,+0000040,-0000101,+0004164,-0000734,+0000426,-0002303,15:03:37.868656
0.368610,+0000038,-0000032,-0000002,+0000048,-0000102,+0004147,-0000734,+0000426,-0002303,15:03:37.868656
0.368943,+0000008,-0000024,-0000010,+0000026,-0000089,+0004171,-0000716,+0000422,-0002294,15:03:37.868656
0.369281,+0000015,-0000015,-0000013,+0000030,-0000086,+0004154,-0000716,+0000422,-0002294,15:03:37.868656
0.369609,+0000006,-0000020,-0000010,+0000037,-0000096,+0004146,-0000716,+0000422,-0002294,15:03:37.868656
0.369942,+0000002,-0000018,-0000007,+0000027,-0000065,+0004133,-0000716,+0000434,-0002321,15:03:37.868656
0.370279,+0000018,-0000034,+0000000,+0000017,-0000071,+0004163,-0000716,+0000434,-0002321,15:03:37.868656
0.370608,+0000019,-0000040,-0000014,+0000033,-0000074,+0004167,-0000716,+0000434,-0002321,15:03:37.868656
0.370941,+0000028,-0000035,-0000024,+0000029,-0000070,+0004167,-0000716,+0000428,-0002294,15:03:37.868656
0.371278,+0000003,-0000013,+0000012,+0000049,-0000107,+0004146,-0000716,+0000428,-0002294,15:03:37.868656
0.371607,+0000011,-0000016,-0000010,+0000033,-0000104,+0004156,-0000716,+0000428,-0002294,15:03:37.868656
0.371940,+0000000,-0000004,+0000006,+0000053,-0000097,+0004137,-0000726,+0000414,-0002332,15:03:37.868656
0.372273,+0000030,-0000046,-0000013,+0000043,-0000085,+0004136,-0000726,+0000414,-0002332,15:03:37.868656
0.372606,+0000020,-0000027,-0000018,+0000051,-0000098,+0004134,-0000726,+0000414,-0002332,15:03:37.868656
0.372939,+0000010,-0000029,+0000001,+0000044,-0000099,+0004170,-0000730,+0000420,-0002309,15:03:37.868656
0.373273,-0000006,+0000003,+0000006,+0000048,-0000098,+0004153,-0000730,+0000420,-0002309,15:03:37.868656
0.373605,+0000009,-0000010,-0000007,+0000046,-0000080,+0004159,-0000730,+0000420,-0002309,15:03:37.868656
0.373938,+0000017,-0000023,-0000011,+0000033,-0000093,+0004143,-0000726,+0000424,-0002317,15:03:37.868656
0.374273,+0000014,-0000031,-0000007,+0000036,-0000095,+0004141,-0000726,+0000424,-0002317,15:03:37.868656
0.374604,+0000027,-0000042,-0000008,+0000034,-0000095,+0004163,-0000726,+0000424,-0002317,15:03:37.868656
0.374937,+0000025,-0000016,-0000002,+0000066,-0000065,+0004160,-0000720,+0000434,-0002306,15:03:37.868656
0.375274,+0000005,-0000005,-0000013,+0000042,-0000089,+0004162,-0000720,+0000434,-0002306,15:03:37.868656
0.375603,+0000015,-0000023,-0000007,+0000023,-0000080,+0004138,-0000720,+0000434,-0002306,15:03:37.868656
0.375936,+0000017,-0000011,-0000005,+0000033,-0000061,+0004174,-0000750,+0000418,-0002279,15:03:37.868656
0.376273,+0000014,-0000036,-0000007,+0000040,-0000099,+0004156,-0000750,+0000418,-0002279,15:03:37.868656
0.376602,+0000019,-0000020,-0000007,+0000031,-0000098,+0004142,-0000750,+0000418,-0002279,15:03:37.868656
0.376935,+0000016,-0000024,-0000008,+0000051,-0000078,+0004156,-0000732,+0000408,-0002308,15:03:37.868656
