===BEGIN_METADATA===
"This CSV contains gyroscope, accelerometer, and magnetometer data synced with the test named below."
Test Name: 2026-07-07_145913_01,yyyy-mm-dd_hhmmss_{probe#/nano_id}
Calibrations: (not implemented yet)
===END_METADATA===
===BEGIN_DATA===
Time (sec),Gyro X,Gyro Y,Gyro Z,Accel X,Accel Y,Accel Z,Mag X,Mag Y,Mag Z,Processed_Time
0.000288,+0000000,-0000016,+0000000,+0000028,-0000093,+0004163,-0000622,+0000298,-0002568,14:59:14.811810
0.000620,+0000019,-0000021,-0000019,+0000038,-0000093,+0004164,-0000622,+0000298,-0002568,14:59:14.811810
0.000953,+0000013,-0000023,-0000007,+0000035,-0000095,+0004175,-0000778,+0000470,-0002358,14:59:14.811810
0.001286,+0000008,-0000010,-0000012,+0000045,-0000093,+0004157,-0000778,+0000470,-0002358,14:59:14.811810
0.001619,+0000025,-0000018,-0000012,+0000038,-0000095,+0004166,-0000778,+0000470,-0002358,14:59:14.811810
0.001952,+0000003,-0000021,-0000013,+0000045,-0000088,+0004167,-0000770,+0000474,-0002347,14:59:14.811810
0.002285,+0000016,-0000027,-0000003,+0000042,-0000078,+0004141,-0000770,+0000474,-0002347,14:59:14.811810
0.002618,+0000014,-0000032,-0000013,+0000038,-0000082,+0004160,-0000770,+0000474,-0002347,14:59:14.811810
0.002951,+0000013,-0000023,-0000019,+0000044,-0000082,+0004168,-0000768,+0000460,-0002369,14:59:14.811810
0.003284,+0000010,-0000007,-0000013,+0000032,-0000084,+0004159,-0000768,+0000460,-0002369,14:59:14.811810
0.003617,+0000007,-0000013,+0000000,+0000056,-0000095,+0004151,-0000768,+0000460,-0002369,14:59:14.811810
0.003950,+0000008,-0000011,+0000000,+0000039,-0000077,+0004149,-0000768,+0000468,-0002348,14:59:14.811810
0.004283,+0000022,-0000048,-0000014,+0000049,-0000083,+0004156,-0000768,+0000468,-0002348,14:59:14.811810
0.004616,+0000011,-0000011,-0000010,+0000044,-0000085,+0004150,-0000768,+0000468,-0002348,14:59:14.811810
0.004949,+0000027,-0000031,-0000006,+0000046,-0000097,+0004140,-0000764,+0000472,-0002336,14:59:14.811810
0.005282,+0000002,-0000008,-0000011,+0000042,-0000080,+0004159,-0000764,+0000472,-0002336,14:59:14.811810
0.005615,+0000005,-0000026,-0000006,+0000042,-0000095,+0004149,-0000764,+0000472,-0002336,14:59:14.811810
0.005948,+0000023,-0000021,-0000016,+0000053,-0000094,+0004131,-0000774,+0000468,-0002337,14:59:14.811810
0.006281,+0000017,-0000040,-0000013,+0000042,-0000077,+0004132,-0000774,+0000468,-0002337,14:59:14.811810
0.006614,+0000016,-0000026,-0000002,+0000050,-0000083,+0004130,-0000774,+0000468,-0002337,14:59:14.811810
0.006947,+0000013,-0000021,-0000019,+0000046,-0000100,+0004155,-0000778,+0000460,-0002342,14:59:14.811810
0.007280,+0000006,+0000003,-0000013,+0000051,-0000076,+0004140,-0000778,+0000460,-0002342,14:59:14.811810
0.007613,+0000016,-0000021,+0000000,+0000056,-0000107,+0004158,-0000778,+0000460,-0002342,14:59:14.811810
0.007946,+0000022,-0000037,-0000010,+0000035,-0000084,+0004147,-0000772,+0000474,-0002337,14:59:14.811810
0.008279,+0000000,-0000032,-0000007,+0000022,-0000064,+0004179,-0000772,+0000474,-0002337,14:59:14.811810
0.008612,+0000030,-0000047,-0000013,+0000029,-0000088,+0004146,-0000772,+0000474,-0002337,14:59:14.811810
0.008945,-0000001,-0000004,-0000007,+0000050,-0000075,+0004142,-0000774,+0000484,-0002351,14:59:14.811810
0.009278,-0000001,-0000002,-0000002,+0000049,-0000113,+0004155,-0000774,+0000484,-0002351,14:59:14.820809
0.009612,+0000019,-0000024,+0000003,+0000060,-0000093,+0004135,-0000774,+0000484,-0002351,14:59:14.820809
0.009945,+0000013,-0000029,-0000015,+0000038,-0000104,+0004148,-0000764,+0000494,-0002341,14:59:14.820809
0.010681,+0000011,-0000014,+0000002,+0000053,-0000099,+0004164,-0000764,+0000494,-0002341,14:59:14.820809
0.011099,+0000000,-0000005,-0000005,+0000039,-0000102,+0004159,-0000764,+0000494,-0002341,14:59:14.820809
0.011278,+0000007,-0000005,-0000003,+0000051,-0000099,+0004159,-0000770,+0000474,-0002312,14:59:14.820809
0.011609,+0000017,-0000035,-0000010,+0000053,-0000100,+0004137,-0000770,+0000474,-0002312,14:59:14.820809
0.011942,+0000019,-0000027,+0000007,+0000065,-0000094,+0004164,-0000770,+0000474,-0002312,14:59:14.820809
0.012277,+0000014,-0000024,-0000007,+0000045,-0000099,+0004137,-0000764,+0000472,-0002326,14:59:14.820809
0.012610,+0000014,-0000019,-0000002,+0000031,-0000087,+0004127,-0000764,+0000472,-0002326,14:59:14.820809
0.012941,+0000014,-0000013,-0000007,+0000059,-0000085,+0004175,-0000764,+0000472,-0002326,14:59:14.820809
0.013274,+0000003,-0000023,-0000002,+0000035,-0000096,+0004164,-0000772,+0000480,-0002335,14:59:14.820809
0.013607,+0000019,-0000017,-0000021,+0000060,-0000074,+0004167,-0000772,+0000480,-0002335,14:59:14.820809
0.013940,+0000014,-0000031,-0000006,+0000048,-0000096,+0004152,-0000772,+0000480,-0002335,14:59:14.820809
0.014274,+0000030,-0000037,-0000016,+0000067,-0000093,+0004164,-0000766,+0000472,-0002330,14:59:14.820809
0.014606,+0000014,-0000011,-0000015,+0000045,-0000100,+0004166,-0000766,+0000472,-0002330,14:59:14.820809
0.014940,-0000002,-0000016,+0000000,+0000041,-0000090,+0004165,-0000766,+0000472,-0002330,14:59:14.820809
0.015272,+0000005,-0000008,-0000010,+0000035,-0000090,+0004148,-0000772,+0000484,-0002331,14:59:14.820809
0.015605,+0000016,-0000040,-0000021,+0000038,-0000073,+0004146,-0000772,+0000484,-0002331,14:59:14.820809
0.015938,+0000002,-0000018,-0000002,+0000057,-0000086,+0004132,-0000772,+0000484,-0002331,14:59:14.820809
0.016271,+0000024,-0000042,-0000008,+0000056,-0000080,+0004153,-0000768,+0000478,-0002339,14:59:14.820809
0.016604,+0000005,-0000019,-0000003,+0000044,-0000101,+0004139,-0000768,+0000478,-0002339,14:59:14.820809
0.016937,+0000011,-0000019,-0000018,+0000047,-0000095,+0004157,-0000768,+0000478,-0002339,14:59:14.820809
0.017270,-0000001,-0000010,-0000002,+0000040,-0000095,+0004160,-0000780,+0000472,-0002300,14:59:14.820809
0.017603,+0000005,-0000027,+0000006,+0000049,-0000096,+0004159,-0000780,+0000472,-0002300,14:59:14.820809
0.017936,+0000014,-0000034,-0000021,+0000041,-0000098,+0004152,-0000780,+0000472,-0002300,14:59:14.820809
0.018269,+0000016,-0000034,+0000001,+0000030,-0000078,+0004149,-0000758,+0000482,-0002317,14:59:14.820809
0.018602,+0000022,-0000016,-0000008,+0000066,-0000080,+0004174,-0000758,+0000482,-0002317,14:59:14.820809
0.018935,+0000014,-0000022,-0000014,+0000036,-0000085,+0004156,-0000758,+0000482,-0002317,14:59:14.820809
0.019268,+0000013,-0000020,-0000004,+0000042,-0000078,+0004147,-0000756,+0000468,-0002313,14:59:14.820809
0.019601,+0000014,-0000029,-0000004,+0000052,-0000082,+0004143,-0000756,+0000468,-0002313,14:59:14.820809
0.019934,+0000022,-0000037,-0000013,+0000062,-0000088,+0004154,-0000756,+0000468,-0002313,14:59:14.820809
0.020268,+0000016,-0000029,-0000013,+0000051,-0000083,+0004133,-0000760,+0000472,-0002319,14:59:14.898676
0.020604,+0000011,-0000028,-0000011,+0000035,-0000083,+0004148,-0000760,+0000472,-0002319,14:59:14.898676
0.020942,+0000002,-0000004,-0000008,+0000043,-0000079,+0004165,-0000760,+0000472,-0002319,14:59:14.898676
0.021421,+0000000,-0000008,-0000014,+0000050,-0000092,+0004146,-0000778,+0000464,-0002331,14:59:14.898676
0.021683,+0000002,-0000011,-0000014,+0000050,-0000092,+0004146,-0000778,+0000464,-0002331,14:59:14.898676
0.021934,+0000016,-0000016,+0000000,+0000057,-0000092,+0004146,-0000778,+0000464,-0002331,14:59:14.898676
0.022267,+0000016,-0000029,-0000014,+0000040,-0000075,+0004160,-0000772,+0000476,-0002333,14:59:14.898676
0.022600,-0000003,+0000003,+0000000,+0000028,-0000101,+0004165,-0000772,+0000476,-0002333,14:59:14.898676
0.022931,+0000002,-0000006,+0000000,+0000054,-0000080,+0004161,-0000772,+0000476,-0002333,14:59:14.898676
0.023265,+0000020,-0000016,-0000005,+0000048,-0000091,+0004151,-0000772,+0000470,-0002336,14:59:14.899673
0.023597,+0000016,-0000037,-0000012,+0000061,-0000084,+0004136,-0000772,+0000470,-0002336,14:59:14.899673
0.023932,+0000021,-0000037,+0000001,+0000052,-0000100,+0004154,-0000772,+0000470,-0002336,14:59:14.899673
0.024264,+0000029,-0000021,-0000005,+0000061,-0000073,+0004159,-0000780,+0000492,-0002311,14:59:14.899673
0.024596,+0000007,-0000007,-0000007,+0000064,-0000069,+0004146,-0000780,+0000492,-0002311,14:59:14.899673
0.024929,-0000003,-0000015,+0000004,+0000061,-0000093,+0004145,-0000780,+0000492,-0002311,14:59:14.899673
0.025540,+0000008,-0000019,+0000008,+0000056,-0000074,+0004144,-0000756,+0000478,-0002357,14:59:14.899673
0.025774,+0000003,-0000021,-0000010,+0000039,-0000104,+0004147,-0000756,+0000478,-0002357,14:59:14.899673
0.025930,+0000003,-0000028,-0000007,+0000062,-0000083,+0004150,-0000756,+0000478,-0002357,14:59:14.899673
0.026265,+0000025,-0000024,-0000015,+0000048,-0000077,+0004120,-0000756,+0000478,-0002357,14:59:14.900669
0.026595,+0000004,-0000026,-0000007,+0000032,-0000097,+0004153,-0000756,+0000478,-0002357,14:59:14.900669
0.026927,+0000023,-0000028,-0000019,+0000023,-0000092,+0004145,-0000756,+0000478,-0002357,14:59:14.900669
0.027260,+0000024,-0000031,-0000002,+0000053,-0000082,+0004150,-0000764,+0000472,-0002323,14:59:14.900669
0.027593,+0000002,-0000034,-0000010,+0000047,-0000101,+0004168,-0000764,+0000472,-0002323,14:59:14.900669
0.027926,+0000029,-0000024,-0000013,+0000032,-0000090,+0004145,-0000764,+0000472,-0002323,14:59:14.900669
0.028259,+0000011,-0000026,-0000012,+0000042,-0000097,+0004160,-0000772,+0000476,-0002336,14:59:14.900669
0.028592,+0000011,-0000011,-0000007,+0000039,-0000086,+0004159,-0000772,+0000476,-0002336,14:59:14.900669
0.028925,-0000003,-0000013,-0000010,+0000053,-0000095,+0004160,-0000772,+0000476,-0002336,14:59:14.900669
0.029258,+0000008,-0000015,-0000011,+0000048,-0000080,+0004152,-0000766,+0000478,-0002332,14:59:14.900669
0.029591,+0000028,-0000029,-0000014,+0000031,-0000111,+0004150,-0000766,+0000478,-0002332,14:59:14.900669
0.029924,+0000013,-0000036,-0000010,+0000058,-0000083,+0004169,-0000766,+0000478,-0002332,14:59:14.900669
0.030257,+0000011,-0000019,-0000008,+0000038,-0000087,+0004146,-0000752,+0000476,-0002326,14:59:14.900669
0.030590,+0000008,-0000016,-0000004,+0000051,-0000084,+0004153,-0000752,+0000476,-0002326,14:59:14.900669
0.030923,+0000010,-0000016,-0000019,+0000043,-0000083,+0004166,-0000752,+0000476,-0002326,14:59:14.900669
0.031256,+0000008,-0000024,-0000021,+0000044,-0000075,+0004163,-0000762,+0000490,-0002337,14:59:14.900669
0.031589,+0000030,-0000035,-0000008,+0000050,-0000096,+0004172,-0000762,+0000490,-0002337,14:59:14.900669
0.031922,-0000003,-0000034,-0000007,+0000049,-0000095,+0004148,-0000762,+0000490,-0002337,14:59:14.900669
0.032255,+0000032,-0000032,-0000019,+0000046,-0000075,+0004157,-0000772,+0000496,-0002323,14:59:14.900669
0.032588,+0000005,-0000015,+0000004,+0000055,-0000086,+0004140,-0000772,+0000496,-0002323,14:59:14.900669
0.032921,+0000010,-0000014,-0000010,+0000060,-0000087,+0004146,-0000772,+0000496,-0002323,14:59:14.900669
0.033254,+0000024,-0000024,-0000005,+0000048,-0000096,+0004161,-0000760,+0000456,-0002317,14:59:14.900669
0.033587,+0000000,-0000037,+0000003,+0000051,-0000096,+0004141,-0000760,+0000456,-0002317,14:59:14.900669
0.033920,+0000028,-0000027,-0000010,+0000056,-0000080,+0004151,-0000760,+0000456,-0002317,14:59:14.900669
0.034253,+0000016,-0000015,-0000008,+0000033,-0000096,+0004153,-0000768,+0000464,-0002320,14:59:14.900669
0.034586,-0000009,+0000000,-0000012,+0000040,-0000075,+0004145,-0000768,+0000464,-0002320,14:59:14.900669
0.034919,+0000013,-0000007,-0000003,+0000045,-0000092,+0004142,-0000768,+0000464,-0002320,14:59:14.900669
0.035252,+0000008,-0000031,-0000005,+0000038,-0000078,+0004146,-0000778,+0000474,-0002336,14:59:14.900669
0.035585,+0000024,-0000040,-0000018,+0000051,-0000087,+0004131,-0000778,+0000474,-0002336,14:59:14.900669
0.035918,+0000028,-0000030,-0000013,+0000038,-0000086,+0004130,-0000778,+0000474,-0002336,14:59:14.900669
0.036251,-0000008,+0000009,+0000006,+0000052,-0000082,+0004161,-0000774,+0000480,-0002371,14:59:14.900669
0.036584,+0000007,-0000002,-0000010,+0000057,-0000109,+0004149,-0000774,+0000480,-0002371,14:59:14.900669
0.036917,+0000022,-0000027,-0000011,+0000068,-0000083,+0004156,-0000774,+0000480,-0002371,14:59:14.900669
0.037250,+0000019,-0000031,-0000005,+0000055,-0000092,+0004141,-0000772,+0000478,-0002323,14:59:14.900669
0.037583,+0000014,-0000036,-0000012,+0000054,-0000092,+0004163,-0000772,+0000478,-0002323,14:59:14.900669
0.037916,+0000024,-0000026,-0000021,+0000073,-0000073,+0004157,-0000772,+0000478,-0002323,14:59:14.900669
0.038249,-0000001,-0000007,+0000006,+0000052,-0000079,+0004141,-0000764,+0000470,-0002322,14:59:14.900669
0.038582,+0000010,-0000016,-0000003,+0000049,-0000059,+0004144,-0000764,+0000470,-0002322,14:59:14.903672
0.038915,+0000021,-0000028,-0000012,+0000034,-0000080,+0004167,-0000764,+0000470,-0002322,14:59:14.903672
0.039248,+0000010,-0000031,-0000003,+0000044,-0000079,+0004175,-0000774,+0000478,-0002337,14:59:14.903672
0.039581,+0000022,-0000027,-0000027,+0000044,-0000071,+0004172,-0000774,+0000478,-0002337,14:59:14.903672
0.039914,+0000022,-0000015,-0000005,+0000043,-0000092,+0004147,-0000774,+0000478,-0002337,14:59:14.903672
0.040247,-0000006,-0000016,-0000004,+0000034,-0000083,+0004156,-0000762,+0000460,-0002311,14:59:14.903672
0.040580,+0000016,-0000011,-0000007,+0000049,-0000092,+0004158,-0000762,+0000460,-0002311,14:59:14.903672
0.040913,+0000004,-0000023,-0000013,+0000051,-0000064,+0004159,-0000762,+0000460,-0002311,14:59:14.903672
0.041246,+0000031,-0000045,-0000005,+0000054,-0000080,+0004169,-0000766,+0000476,-0002335,14:59:14.903672
0.041579,+0000021,-0000034,-0000019,+0000042,-0000092,+0004164,-0000766,+0000476,-0002335,14:59:14.903672
0.041912,+0000024,-0000026,-0000021,+0000033,-0000078,+0004144,-0000766,+0000476,-0002335,14:59:14.903672
0.042245,-0000005,-0000008,+0000009,+0000053,-0000102,+0004157,-0000774,+0000476,-0002354,14:59:14.903672
0.042578,+0000020,-0000008,-0000019,+0000051,-0000096,+0004151,-0000774,+0000476,-0002354,14:59:14.903672
0.042911,+0000008,-0000023,-0000007,+0000044,-0000083,+0004153,-0000774,+0000476,-0002354,14:59:14.903672
0.043244,+0000019,-0000031,-0000018,+0000050,-0000090,+0004153,-0000766,+0000480,-0002338,14:59:14.903672
0.043577,+0000022,-0000037,+0000000,+0000055,-0000081,+0004150,-0000766,+0000480,-0002338,14:59:14.903672
0.043910,+0000016,-0000021,-0000014,+0000042,-0000068,+0004154,-0000766,+0000480,-0002338,14:59:14.903672
0.044243,+0000005,-0000019,-0000016,+0000045,-0000090,+0004147,-0000766,+0000470,-0002316,14:59:14.903672
0.044576,+0000014,-0000010,-0000002,+0000047,-0000080,+0004145,-0000766,+0000470,-0002316,14:59:14.903672
0.044909,+0000012,-0000018,-0000010,+0000042,-0000086,+0004145,-0000766,+0000470,-0002316,14:59:14.903672
0.045242,+0000024,-0000037,-0000013,+0000032,-0000090,+0004158,-0000768,+0000482,-0002359,14:59:14.903672
0.045575,+0000010,-0000026,-0000016,+0000057,-0000087,+0004162,-0000768,+0000482,-0002359,14:59:14.903672
0.045908,+0000014,-0000035,-0000015,+0000039,-0000094,+0004143,-0000768,+0000482,-0002359,14:59:14.903672
0.046241,+0000007,-0000013,-0000002,+0000055,-0000086,+0004166,-0000762,+0000476,-0002334,14:59:14.903672
0.046574,+0000005,-0000036,-0000018,+0000027,-0000087,+0004163,-0000762,+0000476,-0002334,14:59:14.903672
0.046907,+0000019,-0000021,+0000001,+0000034,-0000076,+0004159,-0000762,+0000476,-0002334,14:59:14.903672
0.047240,+0000019,-0000031,-0000002,+0000042,-0000082,+0004149,-0000762,+0000474,-0002319,14:59:14.903672
0.047573,+0000025,-0000031,-0000024,+0000076,-0000099,+0004138,-0000762,+0000474,-0002319,14:59:14.903672
0.047906,+0000014,-0000018,+0000006,+0000049,-0000098,+0004137,-0000762,+0000474,-0002319,14:59:14.903672
0.048239,+0000005,+0000012,-0000005,+0000040,-0000101,+0004143,-0000776,+0000480,-0002331,14:59:14.903672
0.048572,+0000011,-0000026,-0000004,+0000026,-0000092,+0004176,-0000776,+0000480,-0002331,14:59:14.903672
0.048905,+0000016,-0000024,-0000013,+0000044,-0000070,+0004150,-0000776,+0000480,-0002331,14:59:14.903672
0.049238,+0000025,-0000036,-0000015,+0000032,-0000085,+0004143,-0000772,+0000482,-0002349,14:59:14.903672
0.049571,+0000022,-0000040,-0000005,+0000060,-0000085,+0004149,-0000772,+0000482,-0002349,14:59:14.903672
0.049904,-0000006,-0000002,-0000008,+0000064,-0000082,+0004156,-0000772,+0000482,-0002349,14:59:14.903672
0.050237,+0000005,-0000015,-0000010,+0000050,-0000077,+0004143,-0000764,+0000480,-0002343,14:59:14.903672
0.050570,+0000014,-0000015,+0000008,+0000041,-0000085,+0004150,-0000764,+0000480,-0002343,14:59:14.903672
0.050903,+0000030,-0000037,-0000018,+0000059,-0000075,+0004144,-0000764,+0000480,-0002343,14:59:14.903672
0.051236,+0000021,-0000042,-0000008,+0000035,-0000079,+0004161,-0000764,+0000488,-0002315,14:59:14.903672
0.051569,+0000024,-0000013,+0000000,+0000034,-0000072,+0004137,-0000764,+0000488,-0002315,14:59:14.903672
0.051903,+0000011,-0000019,-0000014,+0000041,-0000093,+0004149,-0000764,+0000488,-0002315,14:59:14.903672
0.052235,+0000005,-0000010,-0000010,+0000061,-0000089,+0004136,-0000774,+0000468,-0002326,14:59:14.903672
0.052568,+0000029,-0000032,-0000006,+0000067,-0000094,+0004152,-0000774,+0000468,-0002326,14:59:14.903672
0.052901,+0000014,-0000032,-0000011,+0000048,-0000086,+0004152,-0000774,+0000468,-0002326,14:59:14.903672
0.053234,+0000032,-0000012,-0000016,+0000045,-0000087,+0004149,-0000784,+0000462,-0002337,14:59:14.903672
0.053567,+0000007,-0000029,-0000005,+0000037,-0000083,+0004163,-0000784,+0000462,-0002337,14:59:14.903672
0.053900,+0000014,-0000018,-0000008,+0000036,-0000085,+0004164,-0000784,+0000462,-0002337,14:59:14.903672
0.054233,+0000011,-0000021,-0000018,+0000044,-0000091,+0004157,-0000774,+0000476,-0002335,14:59:14.903672
0.054566,+0000016,-0000024,-0000005,+0000033,-0000102,+0004141,-0000774,+0000476,-0002335,14:59:14.903672
0.054899,+0000007,-0000034,-0000022,+0000043,-0000085,+0004144,-0000774,+0000476,-0002335,14:59:14.903672
0.055232,+0000013,-0000042,-0000011,+0000039,-0000079,+0004129,-0000782,+0000486,-0002339,14:59:14.903672
0.055565,+0000015,-0000020,-0000002,+0000039,-0000082,+0004135,-0000782,+0000486,-0002339,14:59:14.903672
0.055898,+0000003,-0000022,-0000008,+0000046,-0000090,+0004142,-0000782,+0000486,-0002339,14:59:14.903672
0.056231,+0000010,-0000013,-0000007,+0000037,-0000079,+0004150,-0000778,+0000488,-0002353,14:59:14.903672
0.056564,+0000013,-0000021,-0000011,+0000054,-0000092,+0004145,-0000778,+0000488,-0002353,14:59:14.903672
0.056897,+0000040,-0000040,-0000008,+0000025,-0000092,+0004148,-0000778,+0000488,-0002353,14:59:14.903672
0.057230,+0000006,-0000024,-0000002,+0000044,-0000098,+0004119,-0000774,+0000470,-0002322,14:59:14.903672
0.057563,+0000030,-0000034,-0000021,+0000040,-0000101,+0004154,-0000774,+0000470,-0002322,14:59:14.903672
0.057896,+0000002,-0000001,+0000003,+0000046,-0000115,+0004143,-0000774,+0000470,-0002322,14:59:14.903672
0.058229,+0000007,-0000010,-0000013,+0000049,-0000080,+0004130,-0000780,+0000474,-0002339,14:59:14.903672
0.058562,+0000022,-0000029,-0000007,+0000050,-0000104,+0004140,-0000780,+0000474,-0002339,14:59:14.903672
0.058895,+0000029,-0000039,-0000010,+0000066,-0000088,+0004159,-0000780,+0000474,-0002339,14:59:14.903672
0.059228,+0000000,-0000024,-0000004,+0000022,-0000089,+0004154,-0000770,+0000474,-0002309,14:59:14.903672
0.059561,+0000018,-0000029,-0000016,+0000057,-0000087,+0004135,-0000770,+0000474,-0002309,14:59:14.903672
0.059894,+0000005,-0000002,-0000014,+0000048,-0000081,+0004143,-0000770,+0000474,-0002309,14:59:14.903672
0.060227,+0000003,-0000022,+0000001,+0000043,-0000078,+0004149,-0000768,+0000482,-0002323,14:59:14.904673
0.060560,+0000025,-0000021,-0000006,+0000044,-0000052,+0004150,-0000768,+0000482,-0002323,14:59:14.904673
0.060893,+0000030,-0000034,-0000016,+0000054,-0000084,+0004149,-0000768,+0000482,-0002323,14:59:14.904673
0.061226,+0000013,-0000030,-0000003,+0000024,-0000093,+0004147,-0000782,+0000476,-0002349,14:59:14.904673
0.061559,+0000016,-0000026,-0000021,+0000049,-0000082,+0004172,-0000782,+0000476,-0002349,14:59:14.904673
0.061892,+0000002,+0000009,-0000005,+0000048,-0000097,+0004154,-0000782,+0000476,-0002349,14:59:14.904673
0.062225,+0000008,-0000019,-0000011,+0000048,-0000086,+0004160,-0000798,+0000488,-0002322,14:59:14.904673
0.062558,+0000027,-0000040,-0000015,+0000039,-0000074,+0004160,-0000798,+0000488,-0002322,14:59:14.904673
0.062891,+0000007,-0000032,-0000007,+0000049,-0000076,+0004160,-0000798,+0000488,-0002322,14:59:14.904673
0.063224,+0000022,-0000031,-0000002,+0000057,-0000085,+0004159,-0000768,+0000494,-0002345,14:59:14.904673
0.063557,-0000012,+0000003,+0000001,+0000043,-0000080,+0004144,-0000768,+0000494,-0002345,14:59:14.904673
0.063890,+0000002,-0000015,-0000008,+0000043,-0000074,+0004167,-0000768,+0000494,-0002345,14:59:14.904673
0.064223,+0000018,-0000016,-0000004,+0000054,-0000094,+0004161,-0000762,+0000470,-0002331,14:59:14.904673
0.064556,+0000022,-0000040,-0000002,+0000036,-0000082,+0004154,-0000762,+0000470,-0002331,14:59:14.904673
0.064889,+0000016,-0000035,-0000014,+0000035,-0000087,+0004157,-0000762,+0000470,-0002331,14:59:14.904673
0.065222,+0000022,-0000028,-0000014,+0000029,-0000099,+0004164,-0000778,+0000468,-0002316,14:59:14.904673
0.065555,+0000011,-0000011,+0000007,+0000035,-0000067,+0004151,-0000778,+0000468,-0002316,14:59:14.904673
0.065888,+0000015,-0000007,-0000010,+0000036,-0000093,+0004156,-0000778,+0000468,-0002316,14:59:14.904673
0.066221,+0000004,-0000019,-0000007,+0000031,-0000092,+0004130,-0000778,+0000486,-0002338,14:59:14.904673
0.066554,+0000019,-0000044,-0000011,+0000040,-0000098,+0004144,-0000778,+0000486,-0002338,14:59:14.904673
0.066887,+0000022,-0000023,-0000007,+0000049,-0000096,+0004160,-0000778,+0000486,-0002338,14:59:14.904673
0.067220,+0000007,-0000013,+0000001,+0000045,-0000069,+0004133,-0000778,+0000470,-0002334,14:59:14.904673
0.067553,+0000011,-0000023,-0000010,+0000040,-0000079,+0004164,-0000778,+0000470,-0002334,14:59:14.904673
0.067886,+0000008,-0000013,-0000013,+0000059,-0000075,+0004151,-0000778,+0000470,-0002334,14:59:14.904673
0.068219,+0000019,-0000021,-0000007,+0000058,-0000093,+0004142,-0000766,+0000474,-0002320,14:59:14.904673
0.068552,+0000016,-0000023,-0000007,+0000061,-0000093,+0004132,-0000766,+0000474,-0002320,14:59:14.904673
0.068885,+0000030,-0000039,-0000016,+0000059,-0000074,+0004146,-0000766,+0000474,-0002320,14:59:14.904673
0.069218,+0000013,-0000018,-0000007,+0000045,-0000089,+0004149,-0000774,+0000470,-0002324,14:59:14.904673
0.069551,+0000002,-0000005,-0000012,+0000044,-0000083,+0004151,-0000774,+0000470,-0002324,14:59:14.904673
0.069884,+0000016,-0000019,-0000010,+0000026,-0000089,+0004140,-0000774,+0000470,-0002324,14:59:14.904673
0.070217,+0000005,-0000018,-0000003,+0000030,-0000085,+0004134,-0000792,+0000470,-0002304,14:59:14.920679
0.070551,+0000022,-0000024,-0000011,+0000037,-0000077,+0004150,-0000792,+0000470,-0002304,14:59:14.920679
0.070890,+0000013,-0000013,-0000010,+0000020,-0000088,+0004164,-0000792,+0000470,-0002304,14:59:14.920679
0.071594,+0000016,-0000014,-0000006,+0000060,-0000079,+0004169,-0000782,+0000472,-0002283,14:59:14.920679
0.072125,+0000004,-0000013,+0000001,+0000052,-0000085,+0004161,-0000782,+0000472,-0002283,14:59:14.920679
0.072312,+0000019,-0000029,+0000001,+0000052,-0000085,+0004161,-0000782,+0000472,-0002283,14:59:14.920679
0.072583,+0000008,-0000019,-0000004,+0000048,-0000075,+0004163,-0000774,+0000466,-0002341,14:59:14.920679
0.072894,+0000014,-0000029,-0000015,+0000051,-0000075,+0004157,-0000774,+0000466,-0002341,14:59:14.920679
0.073219,+0000016,-0000021,-0000005,+0000038,-0000098,+0004137,-0000774,+0000466,-0002341,14:59:14.920679
0.073548,-0000004,-0000015,-0000010,+0000057,-0000088,+0004142,-0000788,+0000484,-0002322,14:59:14.920679
0.073880,+0000013,-0000026,-0000009,+0000030,-0000084,+0004134,-0000788,+0000484,-0002322,14:59:14.920679
0.074213,+0000027,-0000037,-0000005,+0000038,-0000085,+0004142,-0000788,+0000484,-0002322,14:59:14.920679
0.074547,+0000027,-0000037,-0000013,+0000033,-0000085,+0004129,-0000782,+0000474,-0002312,14:59:14.920679
0.074879,+0000037,-0000023,-0000015,+0000045,-0000078,+0004156,-0000782,+0000474,-0002312,14:59:14.920679
0.075212,+0000009,-0000023,-0000016,+0000039,-0000084,+0004163,-0000782,+0000474,-0002312,14:59:14.920679
0.075545,-0000007,-0000008,-0000013,+0000058,-0000090,+0004156,-0000778,+0000474,-0002341,14:59:14.920679
0.075878,+0000010,-0000018,+0000003,+0000029,-0000082,+0004142,-0000778,+0000474,-0002341,14:59:14.920679
0.076211,+0000019,-0000022,-0000007,+0000046,-0000072,+0004151,-0000778,+0000474,-0002341,14:59:14.920679
0.076544,+0000027,-0000042,-0000015,+0000052,-0000090,+0004142,-0000770,+0000498,-0002349,14:59:14.920679
0.076877,-0000004,-0000031,-0000015,+0000048,-0000093,+0004142,-0000770,+0000498,-0002349,14:59:14.920679
0.077210,-0000006,-0000002,-0000008,+0000050,-0000065,+0004163,-0000770,+0000498,-0002349,14:59:14.920679
0.077543,+0000003,-0000014,-0000008,+0000058,-0000076,+0004140,-0000762,+0000486,-0002329,14:59:14.920679
0.077876,+0000008,-0000016,-0000005,+0000065,-0000085,+0004168,-0000762,+0000486,-0002329,14:59:14.920679
0.078209,+0000025,-0000044,-0000018,+0000056,-0000087,+0004158,-0000762,+0000486,-0002329,14:59:14.920679
0.078542,+0000025,-0000029,+0000006,+0000050,-0000072,+0004137,-0000776,+0000470,-0002332,14:59:14.920679
0.078875,+0000018,-0000007,-0000005,+0000041,-0000084,+0004149,-0000776,+0000470,-0002332,14:59:14.920679
0.079208,+0000015,-0000019,-0000012,+0000052,-0000085,+0004144,-0000776,+0000470,-0002332,14:59:14.920679
0.079541,-0000003,-0000020,-0000010,+0000056,-0000088,+0004164,-0000766,+0000476,-0002341,14:59:14.920679
0.079874,+0000011,-0000013,+0000003,+0000062,-0000081,+0004152,-0000766,+0000476,-0002341,14:59:14.920679
0.080207,+0000025,-0000039,-0000013,+0000030,-0000113,+0004167,-0000766,+0000476,-0002341,14:59:14.920679
0.080540,+0000027,-0000027,-0000003,+0000050,-0000096,+0004165,-0000770,+0000466,-0002342,14:59:14.920679
0.080873,+0000005,-0000016,-0000010,+0000011,-0000081,+0004160,-0000770,+0000466,-0002342,14:59:14.920679
0.081206,+0000016,-0000016,-0000012,+0000047,-0000087,+0004166,-0000770,+0000466,-0002342,14:59:14.920679
0.081539,+0000002,-0000014,-0000005,+0000032,-0000098,+0004139,-0000758,+0000492,-0002353,14:59:14.920679
0.081872,+0000014,-0000022,-0000003,+0000044,-0000086,+0004158,-0000758,+0000492,-0002353,14:59:14.920679
0.082205,+0000022,-0000038,-0000010,+0000052,-0000089,+0004160,-0000758,+0000492,-0002353,14:59:14.920679
0.082538,+0000014,-0000037,-0000002,+0000040,-0000091,+0004166,-0000768,+0000480,-0002343,14:59:14.920679
0.082871,+0000010,-0000027,-0000015,+0000038,-0000091,+0004130,-0000768,+0000480,-0002343,14:59:14.920679
0.083204,+0000009,-0000015,-0000011,+0000051,-0000088,+0004154,-0000768,+0000480,-0002343,14:59:14.920679
0.083537,+0000011,-0000015,-0000006,+0000043,-0000087,+0004152,-0000778,+0000480,-0002332,14:59:14.920679
0.083870,+0000009,-0000032,-0000005,+0000048,-0000104,+0004121,-0000778,+0000480,-0002332,14:59:14.920679
0.084203,+0000025,-0000034,-0000015,+0000043,-0000101,+0004130,-0000778,+0000480,-0002332,14:59:14.920679
0.084536,+0000005,-0000028,-0000007,+0000054,-0000092,+0004140,-0000778,+0000498,-0002352,14:59:14.920679
0.084869,+0000010,-0000026,-0000001,+0000051,-0000090,+0004147,-0000778,+0000498,-0002352,14:59:14.920679
0.085202,+0000008,-0000008,-0000013,+0000060,-0000070,+0004131,-0000778,+0000498,-0002352,14:59:14.920679
0.085535,+0000011,-0000021,-0000004,+0000055,-0000094,+0004172,-0000764,+0000464,-0002324,14:59:14.920679
0.085868,+0000022,-0000031,-0000011,+0000033,-0000072,+0004170,-0000764,+0000464,-0002324,14:59:14.920679
0.086201,+0000016,-0000031,-0000007,+0000060,-0000103,+0004158,-0000764,+0000464,-0002324,14:59:14.920679
0.086534,+0000016,-0000029,+0000001,+0000054,-0000090,+0004152,-0000782,+0000474,-0002311,14:59:14.920679
0.086867,+0000008,-0000031,-0000015,+0000043,-0000076,+0004173,-0000782,+0000474,-0002311,14:59:14.920679
0.087200,+0000005,-0000003,-0000008,+0000057,-0000086,+0004160,-0000782,+0000474,-0002311,14:59:14.920679
0.087533,+0000011,-0000016,-0000015,+0000061,-0000078,+0004161,-0000772,+0000470,-0002338,14:59:14.920679
0.087866,+0000021,-0000027,-0000015,+0000054,-0000066,+0004145,-0000772,+0000470,-0002338,14:59:14.920679
0.088199,+0000014,-0000032,+0000004,+0000049,-0000089,+0004141,-0000772,+0000470,-0002338,14:59:14.920679
0.088532,+0000022,-0000034,-0000011,+0000059,-0000085,+0004147,-0000782,+0000490,-0002321,14:59:14.920679
0.088865,+0000010,-0000018,-0000012,+0000057,-0000073,+0004145,-0000782,+0000490,-0002321,14:59:14.923733
0.089198,-0000008,+0000010,-0000005,+0000060,-0000081,+0004158,-0000782,+0000490,-0002321,14:59:14.923733
0.089531,+0000027,-0000018,-0000005,+0000050,-0000066,+0004140,-0000766,+0000474,-0002336,14:59:14.923733
0.089864,+0000019,-0000023,-0000011,+0000043,-0000095,+0004145,-0000766,+0000474,-0002336,14:59:14.923733
0.090199,+0000018,-0000038,-0000012,+0000058,-0000103,+0004151,-0000766,+0000474,-0002336,14:59:14.923733
0.090530,+0000025,-0000036,-0000015,+0000062,-0000084,+0004155,-0000766,+0000502,-0002339,14:59:14.923733
0.090863,+0000000,+0000000,+0000006,+0000042,-0000082,+0004149,-0000766,+0000502,-0002339,14:59:14.923733
0.091196,+0000006,-0000013,-0000011,+0000044,-0000091,+0004150,-0000766,+0000502,-0002339,14:59:14.923733
0.091529,+0000008,-0000016,+0000001,+0000050,-0000074,+0004143,-0000776,+0000490,-0002320,14:59:14.923733
0.091862,+0000019,-0000037,-0000010,+0000054,-0000096,+0004149,-0000776,+0000490,-0002320,14:59:14.923733
0.092195,+0000021,-0000045,-0000016,+0000053,-0000092,+0004149,-0000776,+0000490,-0002320,14:59:14.923733
0.092528,+0000017,-0000026,-0000019,+0000055,-0000091,+0004125,-0000756,+0000490,-0002334,14:59:14.923733
0.092861,+0000005,-0000010,-0000007,+0000055,-0000080,+0004149,-0000756,+0000490,-0002334,14:59:14.923733
0.093194,+0000003,-0000015,+0000003,+0000062,-0000089,+0004152,-0000756,+0000490,-0002334,14:59:14.923733
0.093527,+0000021,-0000034,-0000016,+0000072,-0000083,+0004138,-0000784,+0000486,-0002322,14:59:14.923733
0.093860,+0000019,-0000032,-0000008,+0000064,-0000090,+0004166,-0000784,+0000486,-0002322,14:59:14.923733
0.094193,+0000016,-0000019,-0000014,+0000060,-0000083,+0004152,-0000784,+0000486,-0002322,14:59:14.923733
0.094526,+0000000,-0000020,-0000013,+0000060,-0000079,+0004142,-0000774,+0000462,-0002336,14:59:14.923733
0.094859,+0000010,-0000026,-0000010,+0000048,-0000074,+0004137,-0000774,+0000462,-0002336,14:59:14.923733
0.095192,-0000002,-0000001,+0000001,+0000054,-0000067,+0004129,-0000774,+0000462,-0002336,14:59:14.923733
0.095525,+0000017,-0000019,-0000010,+0000031,-0000088,+0004147,-0000766,+0000480,-0002340,14:59:14.923733
0.095858,+0000005,-0000018,-0000024,+0000062,-0000100,+0004155,-0000766,+0000480,-0002340,14:59:14.923733
0.096191,+0000008,-0000029,+0000000,+0000053,-0000083,+0004134,-0000766,+0000480,-0002340,14:59:14.923733
0.096524,+0000014,-0000018,-0000010,+0000032,-0000082,+0004136,-0000782,+0000484,-0002321,14:59:14.923733
0.096857,+0000019,-0000024,-0000008,+0000062,-0000098,+0004144,-0000782,+0000484,-0002321,14:59:14.923733
0.097190,+0000000,-0000013,-0000008,+0000050,-0000087,+0004136,-0000782,+0000484,-0002321,14:59:14.923733
0.097523,+0000016,-0000020,-0000014,+0000054,-0000100,+0004149,-0000760,+0000484,-0002305,14:59:14.923733
0.097856,+0000025,-0000029,-0000010,+0000061,-0000097,+0004141,-0000760,+0000484,-0002305,14:59:14.923733
0.098189,+0000009,-0000030,-0000014,+0000046,-0000093,+0004142,-0000760,+0000484,-0002305,14:59:14.923733
0.098522,+0000016,-0000018,-0000003,+0000064,-0000090,+0004148,-0000752,+0000480,-0002305,14:59:14.923733
0.098856,+0000003,-0000026,-0000011,+0000062,-0000093,+0004164,-0000752,+0000480,-0002305,14:59:14.924754
0.099188,-0000002,+0000001,+0000000,+0000053,-0000088,+0004141,-0000752,+0000480,-0002305,14:59:14.924754
0.099521,+0000013,-0000029,-0000002,+0000052,-0000113,+0004159,-0000762,+0000464,-0002346,14:59:14.924754
0.099856,+0000017,-0000040,-0000018,+0000029,-0000110,+0004140,-0000762,+0000464,-0002346,14:59:14.924754
0.100187,+0000014,-0000027,-0000006,+0000048,-0000087,+0004171,-0000762,+0000464,-0002346,14:59:14.924754
0.100520,+0000009,-0000024,-0000013,+0000048,-0000088,+0004149,-0000782,+0000478,-0002335,14:59:14.924754
0.101038,+0000011,-0000040,-0000008,+0000036,-0000088,+0004130,-0000782,+0000478,-0002335,14:59:14.924754
0.101228,+0000005,-0000005,-0000002,+0000060,-0000090,+0004145,-0000782,+0000478,-0002335,14:59:14.924754
0.101523,+0000007,-0000032,-0000020,+0000061,-0000067,+0004150,-0000762,+0000480,-0002321,14:59:14.924754
0.101858,+0000011,-0000016,-0000004,+0000038,-0000094,+0004144,-0000762,+0000480,-0002321,14:59:14.924754
0.102187,+0000013,-0000026,-0000023,+0000034,-0000099,+0004149,-0000762,+0000480,-0002321,14:59:14.925755
0.102519,+0000003,-0000010,-0000002,+0000060,-0000103,+0004163,-0000758,+0000482,-0002340,14:59:14.925755
0.102857,+0000008,+0000000,-0000007,+0000066,-0000092,+0004146,-0000758,+0000482,-0002340,14:59:14.925755
0.103184,-0000002,-0000018,-0000005,+0000047,-0000082,+0004154,-0000758,+0000482,-0002340,14:59:14.925755
0.103518,+0000028,-0000035,-0000010,+0000033,-0000067,+0004150,-0000746,+0000488,-0002306,14:59:14.925755
0.103857,+0000006,-0000024,-0000002,+0000054,-0000081,+0004135,-0000746,+0000488,-0002306,14:59:14.925755
0.104185,+0000024,-0000029,-0000012,+0000044,-0000087,+0004164,-0000746,+0000488,-0002306,14:59:14.925755
0.104517,-0000003,+0000003,-0000011,+0000036,-0000076,+0004151,-0000774,+0000492,-0002314,14:59:14.930742
0.104854,-0000001,-0000013,+0000001,+0000038,-0000071,+0004155,-0000774,+0000492,-0002314,14:59:14.930742
0.105182,+0000010,-0000018,-0000006,+0000051,-0000100,+0004148,-0000774,+0000492,-0002314,14:59:14.930742
0.105515,+0000020,-0000040,-0000026,+0000044,-0000087,+0004136,-0000770,+0000480,-0002350,14:59:14.930742
0.105853,+0000016,-0000040,-0000005,+0000068,-0000103,+0004143,-0000770,+0000480,-0002350,14:59:14.930742
0.106181,+0000033,-0000002,-0000016,+0000046,-0000096,+0004162,-0000770,+0000480,-0002350,14:59:14.930742
0.106514,-0000004,+0000002,+0000007,+0000023,-0000084,+0004164,-0000758,+0000472,-0002321,14:59:14.930742
0.106852,+0000008,-0000016,-0000007,+0000042,-0000080,+0004152,-0000758,+0000472,-0002321,14:59:14.930742
0.107180,+0000021,-0000029,-0000005,+0000038,-0000090,+0004134,-0000758,+0000472,-0002321,14:59:14.930742
0.107513,+0000025,-0000043,-0000008,+0000060,-0000087,+0004147,-0000762,+0000480,-0002319,14:59:14.930742
0.107849,+0000033,-0000016,-0000016,+0000061,-0000083,+0004152,-0000762,+0000480,-0002319,14:59:14.930742
0.108179,+0000011,-0000021,-0000002,+0000063,-0000101,+0004133,-0000762,+0000480,-0002319,14:59:14.930742
0.108512,+0000003,-0000001,+0000001,+0000048,-0000089,+0004129,-0000764,+0000470,-0002333,14:59:14.930742
0.108849,+0000014,-0000021,-0000022,+0000029,-0000066,+0004152,-0000764,+0000470,-0002333,14:59:14.930742
0.109178,+0000011,-0000008,-0000007,+0000035,-0000077,+0004160,-0000764,+0000470,-0002333,14:59:14.930742
0.109511,+0000017,-0000037,-0000007,+0000044,-0000063,+0004134,-0000760,+0000464,-0002341,14:59:14.930742
0.109848,+0000029,-0000042,-0000021,+0000037,-0000077,+0004163,-0000760,+0000464,-0002341,14:59:14.930742
0.110177,+0000010,-0000021,+0000004,+0000043,-0000076,+0004161,-0000760,+0000464,-0002341,14:59:14.930742
0.110510,+0000007,-0000018,-0000016,+0000051,-0000098,+0004166,-0000774,+0000472,-0002326,14:59:14.930742
0.110848,-0000001,-0000011,+0000000,+0000070,-0000080,+0004146,-0000774,+0000472,-0002326,14:59:14.930742
0.111176,+0000021,-0000026,-0000016,+0000038,-0000104,+0004141,-0000774,+0000472,-0002326,14:59:14.930742
0.111509,+0000029,-0000036,-0000013,+0000045,-0000075,+0004167,-0000750,+0000470,-0002316,14:59:14.930742
0.111846,+0000017,-0000024,-0000002,+0000038,-0000071,+0004162,-0000750,+0000470,-0002316,14:59:14.930742
0.112175,+0000011,-0000028,-0000018,+0000063,-0000077,+0004155,-0000750,+0000470,-0002316,14:59:14.930742
0.112508,+0000003,-0000008,-0000005,+0000048,-0000080,+0004145,-0000772,+0000484,-0002315,14:59:14.930742
0.112845,+0000021,-0000022,-0000007,+0000064,-0000085,+0004146,-0000772,+0000484,-0002315,14:59:14.930742
0.113174,+0000022,-0000042,-0000010,+0000055,-0000089,+0004141,-0000772,+0000484,-0002315,14:59:14.930742
0.113507,+0000014,-0000015,-0000010,+0000055,-0000088,+0004158,-0000734,+0000480,-0002323,14:59:14.930742
0.113840,+0000013,-0000043,-0000008,+0000050,-0000107,+0004148,-0000734,+0000480,-0002323,14:59:14.930742
0.114173,+0000016,-0000027,-0000024,+0000045,-0000108,+0004145,-0000734,+0000480,-0002323,14:59:14.930742
0.114506,+0000002,-0000008,+0000004,+0000052,-0000078,+0004159,-0000772,+0000454,-0002343,14:59:14.930742
0.114840,-0000005,-0000024,-0000011,+0000036,-0000095,+0004163,-0000772,+0000454,-0002343,14:59:14.930742
0.115172,+0000017,-0000020,-0000002,+0000046,-0000088,+0004131,-0000772,+0000454,-0002343,14:59:14.930742
0.115505,+0000017,-0000048,-0000016,+0000043,-0000089,+0004150,-0000770,+0000468,-0002317,14:59:14.930742
0.115840,+0000027,-0000027,-0000022,+0000041,-0000079,+0004158,-0000770,+0000468,-0002317,14:59:14.930742
0.116171,+0000003,-0000007,+0000004,+0000042,-0000091,+0004147,-0000770,+0000468,-0002317,14:59:14.930742
0.116504,-0000011,-0000002,+0000008,+0000035,-0000106,+0004148,-0000768,+0000494,-0002324,14:59:14.930742
0.116841,+0000027,-0000019,-0000015,+0000066,-0000082,+0004137,-0000768,+0000494,-0002324,14:59:14.930742
0.117170,+0000010,-0000028,+0000004,+0000043,-0000064,+0004154,-0000768,+0000494,-0002324,14:59:14.930742
0.117503,+0000033,-0000045,-0000027,+0000041,-0000066,+0004159,-0000774,+0000478,-0002334,14:59:14.930742
0.117840,+0000024,-0000028,-0000002,+0000036,-0000080,+0004160,-0000774,+0000478,-0002334,14:59:14.930742
0.118169,+0000008,+0000000,-0000003,+0000021,-0000081,+0004155,-0000774,+0000478,-0002334,14:59:14.930742
0.118502,+0000014,-0000016,-0000005,+0000028,-0000087,+0004133,-0000786,+0000468,-0002313,14:59:14.930742
0.118839,-0000001,-0000022,+0000008,+0000038,-0000076,+0004128,-0000786,+0000468,-0002313,14:59:14.930742
0.119168,+0000018,-0000039,-0000026,+0000041,-0000100,+0004136,-0000786,+0000468,-0002313,14:59:14.930742
0.119501,+0000029,-0000034,+0000006,+0000048,-0000101,+0004155,-0000770,+0000486,-0002362,14:59:14.930742
0.119847,+0000011,-0000008,-0000005,+0000038,-0000107,+0004156,-0000770,+0000486,-0002362,14:59:14.930742
0.120169,+0000014,-0000018,-0000013,+0000047,-0000081,+0004155,-0000770,+0000486,-0002362,14:59:15.003957
0.120501,+0000007,-0000029,-0000009,+0000047,-0000097,+0004149,-0000766,+0000482,-0002317,14:59:15.003957
0.120840,+0000011,-0000016,-0000002,+0000066,-0000076,+0004154,-0000766,+0000482,-0002317,14:59:15.003957
0.121525,+0000013,-0000005,+0000006,+0000059,-0000066,+0004142,-0000766,+0000482,-0002317,14:59:15.003957
0.122035,+0000006,-0000035,-0000005,+0000029,-0000079,+0004155,-0000762,+0000484,-0002338,14:59:15.003957
0.122295,+0000011,-0000035,-0000005,+0000029,-0000078,+0004152,-0000762,+0000484,-0002338,14:59:15.003957
0.122501,+0000007,-0000012,-0000013,+0000056,-0000078,+0004152,-0000762,+0000484,-0002338,14:59:15.003957
0.122844,+0000000,-0000013,-0000001,+0000062,-0000076,+0004142,-0000762,+0000484,-0002310,14:59:15.003957
0.123169,+0000021,-0000008,+0000000,+0000042,-0000079,+0004148,-0000762,+0000484,-0002310,14:59:15.003957
0.123498,+0000011,-0000019,-0000011,+0000047,-0000096,+0004159,-0000762,+0000484,-0002310,14:59:15.003957
0.123842,+0000003,-0000010,-0000003,+0000063,-0000090,+0004164,-0000756,+0000490,-0002341,14:59:15.003957
0.124164,+0000002,-0000026,-0000007,+0000046,-0000086,+0004159,-0000756,+0000490,-0002341,14:59:15.003957
0.124496,+0000008,-0000019,+0000004,+0000042,-0000078,+0004146,-0000756,+0000490,-0002341,14:59:15.003957
0.124829,+0000014,-0000019,+0000003,+0000050,-0000080,+0004134,-0000776,+0000474,-0002351,14:59:15.003957
0.125164,+0000013,-0000032,+0000001,+0000042,-0000100,+0004146,-0000776,+0000474,-0002351,14:59:15.003957
0.125495,+0000021,-0000024,-0000007,+0000036,-0000096,+0004156,-0000776,+0000474,-0002351,14:59:15.003957
0.125828,+0000000,-0000008,-0000016,+0000028,-0000096,+0004149,-0000772,+0000470,-0002319,14:59:15.003957
0.126161,+0000014,-0000018,-0000005,+0000031,-0000090,+0004147,-0000772,+0000470,-0002319,14:59:15.003957
0.126494,+0000013,-0000019,-0000010,+0000060,-0000099,+0004143,-0000772,+0000470,-0002319,14:59:15.003957
0.126827,+0000011,-0000024,-0000008,+0000045,-0000095,+0004142,-0000764,+0000462,-0002355,14:59:15.003957
0.127160,+0000011,-0000034,-0000013,+0000046,-0000096,+0004136,-0000764,+0000462,-0002355,14:59:15.003957
0.127493,+0000027,-0000036,-0000010,+0000060,-0000077,+0004129,-0000764,+0000462,-0002355,14:59:15.003957
0.127826,+0000010,-0000011,-0000016,+0000069,-0000088,+0004137,-0000780,+0000478,-0002335,14:59:15.003957
0.128159,-0000002,-0000007,-0000001,+0000050,-0000074,+0004123,-0000780,+0000478,-0002335,14:59:15.003957
0.128743,+0000013,-0000018,-0000007,+0000042,-0000078,+0004145,-0000780,+0000478,-0002335,14:59:15.003957
0.128962,+0000013,-0000018,-0000007,+0000042,-0000078,+0004179,-0000786,+0000476,-0002329,14:59:15.003957
0.129191,+0000016,-0000015,-0000015,+0000059,-0000071,+0004179,-0000786,+0000476,-0002329,14:59:15.003957
0.129493,+0000008,-0000030,-0000003,+0000053,-0000055,+0004152,-0000786,+0000476,-0002329,14:59:15.003957
0.129825,+0000022,-0000032,-0000013,+0000050,-0000099,+0004139,-0000762,+0000450,-0002330,14:59:15.003957
0.130158,+0000005,+0000005,+0000004,+0000048,-0000083,+0004156,-0000762,+0000450,-0002330,14:59:15.003957
0.130492,+0000006,-0000019,-0000010,+0000051,-0000084,+0004144,-0000762,+0000450,-0002330,14:59:15.003957
0.130823,+0000017,-0000024,-0000015,+0000049,-0000090,+0004152,-0000788,+0000472,-0002343,14:59:15.003957
0.131157,+0000032,-0000047,-0000005,+0000053,-0000096,+0004173,-0000788,+0000472,-0002343,14:59:15.003957
0.131489,+0000011,-0000034,-0000005,+0000059,-0000080,+0004149,-0000788,+0000472,-0002343,14:59:15.003957
0.131823,+0000008,-0000015,-0000007,+0000038,-0000081,+0004139,-0000774,+0000488,-0002319,14:59:15.003957
0.132155,+0000007,-0000026,-0000005,+0000041,-0000085,+0004151,-0000774,+0000488,-0002319,14:59:15.003957
0.132489,+0000011,-0000011,+0000003,+0000039,-0000103,+0004142,-0000774,+0000488,-0002319,14:59:15.003957
0.132823,+0000025,-0000042,-0000014,+0000037,-0000091,+0004161,-0000786,+0000478,-0002325,14:59:15.003957
0.133154,+0000011,-0000034,-0000015,+0000036,-0000087,+0004160,-0000786,+0000478,-0002325,14:59:15.003957
0.133487,+0000016,-0000005,-0000004,+0000050,-0000090,+0004139,-0000786,+0000478,-0002325,14:59:15.003957
0.133820,+0000022,-0000016,-0000016,+0000034,-0000090,+0004164,-0000772,+0000472,-0002349,14:59:15.003957
0.134153,+0000002,-0000013,-0000005,+0000059,-0000091,+0004174,-0000772,+0000472,-0002349,14:59:15.003957
0.134486,+0000002,-0000023,+0000000,+0000059,-0000085,+0004154,-0000772,+0000472,-0002349,14:59:15.003957
0.134819,+0000030,-0000032,-0000011,+0000058,-0000093,+0004131,-0000768,+0000474,-0002347,14:59:15.003957
0.135152,+0000024,-0000008,-0000013,+0000063,-0000103,+0004149,-0000768,+0000474,-0002347,14:59:15.003957
0.135485,+0000005,-0000018,-0000004,+0000052,-0000087,+0004166,-0000768,+0000474,-0002347,14:59:15.003957
0.135818,+0000022,-0000020,-0000018,+0000041,-0000092,+0004164,-0000760,+0000484,-0002344,14:59:15.003957
0.136151,+0000007,-0000015,-0000002,+0000040,-0000073,+0004166,-0000760,+0000484,-0002344,14:59:15.003957
0.136484,+0000005,-0000012,-0000010,+0000050,-0000086,+0004141,-0000760,+0000484,-0002344,14:59:15.003957
0.136817,+0000031,-0000047,-0000016,+0000061,-0000107,+0004148,-0000766,+0000478,-0002348,14:59:15.003957
0.137150,+0000010,-0000039,-0000014,+0000041,-0000074,+0004145,-0000766,+0000478,-0002348,14:59:15.003957
0.137483,+0000016,-0000021,+0000004,+0000037,-0000079,+0004159,-0000766,+0000478,-0002348,14:59:15.003957
0.137816,+0000013,-0000010,-0000022,+0000034,-0000085,+0004155,-0000744,+0000478,-0002348,14:59:15.003957
0.138149,-0000009,-0000007,+0000012,+0000032,-0000075,+0004155,-0000744,+0000478,-0002348,14:59:15.003957
0.138482,+0000022,-0000039,+0000011,+0000065,-0000081,+0004143,-0000744,+0000478,-0002348,14:59:15.003957
0.138815,+0000013,-0000032,-0000014,+0000043,-0000093,+0004144,-0000758,+0000474,-0002334,14:59:15.003957
0.139148,+0000025,-0000039,-0000011,+0000064,-0000109,+0004142,-0000758,+0000474,-0002334,14:59:15.003957
0.139481,+0000011,-0000023,-0000008,+0000063,-0000088,+0004142,-0000758,+0000474,-0002334,14:59:15.003957
0.139814,+0000000,-0000007,-0000007,+0000061,-0000092,+0004161,-0000776,+0000486,-0002332,14:59:15.003957
0.140147,+0000024,-0000021,-0000016,+0000055,-0000086,+0004141,-0000776,+0000486,-0002332,14:59:15.003957
0.140480,+0000017,-0000023,-0000008,+0000060,-0000098,+0004168,-0000776,+0000486,-0002332,14:59:15.003957
0.140813,+0000011,-0000024,-0000008,+0000043,-0000080,+0004152,-0000758,+0000464,-0002323,14:59:15.003957
0.141146,+0000022,-0000037,-0000004,+0000062,-0000087,+0004135,-0000758,+0000464,-0002323,14:59:15.003957
0.141479,+0000010,-0000028,-0000014,+0000064,-0000103,+0004145,-0000758,+0000464,-0002323,14:59:15.003957
0.141812,+0000010,-0000007,-0000010,+0000048,-0000078,+0004137,-0000782,+0000490,-0002335,14:59:15.003957
0.142145,+0000013,-0000021,+0000000,+0000039,-0000075,+0004143,-0000782,+0000490,-0002335,14:59:15.003957
0.142478,+0000013,-0000021,-0000002,+0000044,-0000093,+0004148,-0000782,+0000490,-0002335,14:59:15.003957
0.142811,+0000022,-0000045,-0000014,+0000021,-0000081,+0004162,-0000772,+0000480,-0002321,14:59:15.003957
0.143144,+0000014,-0000031,-0000018,+0000046,-0000091,+0004146,-0000772,+0000480,-0002321,14:59:15.003957
0.143477,+0000011,-0000024,-0000004,+0000036,-0000086,+0004149,-0000772,+0000480,-0002321,14:59:15.003957
0.143810,+0000013,-0000012,+0000000,+0000044,-0000090,+0004159,-0000766,+0000478,-0002333,14:59:15.003957
0.144143,+0000016,-0000024,-0000010,+0000049,-0000086,+0004164,-0000766,+0000478,-0002333,14:59:15.003957
0.144476,+0000000,-0000024,+0000003,+0000058,-0000084,+0004135,-0000766,+0000478,-0002333,14:59:15.003957
0.144809,+0000024,-0000040,-0000010,+0000040,-0000094,+0004142,-0000776,+0000504,-0002349,14:59:15.003957
0.145142,+0000017,-0000034,-0000013,+0000049,-0000104,+0004154,-0000776,+0000504,-0002349,14:59:15.003957
0.145475,-0000001,+0000001,+0000001,+0000046,-0000095,+0004147,-0000776,+0000504,-0002349,14:59:15.003957
0.145808,+0000002,-0000013,-0000010,+0000056,-0000105,+0004131,-0000756,+0000476,-0002342,14:59:15.003957
0.146141,+0000010,-0000032,-0000004,+0000064,-0000108,+0004166,-0000756,+0000476,-0002342,14:59:15.003957
0.146474,+0000025,-0000035,-0000015,+0000046,-0000096,+0004152,-0000756,+0000476,-0002342,14:59:15.003957
0.146807,+0000008,-0000036,-0000015,+0000045,-0000089,+0004156,-0000788,+0000512,-0002314,14:59:15.003957
0.147140,+0000033,-0000027,-0000008,+0000068,-0000095,+0004162,-0000788,+0000512,-0002314,14:59:15.003957
0.147473,+0000019,-0000018,-0000018,+0000044,-0000079,+0004150,-0000788,+0000512,-0002314,14:59:15.003957
0.147806,+0000010,-0000012,-0000008,+0000042,-0000078,+0004151,-0000788,+0000486,-0002297,14:59:15.003957
0.148139,+0000013,-0000026,-0000002,+0000026,-0000074,+0004170,-0000788,+0000486,-0002297,14:59:15.003957
0.148472,+0000025,-0000034,-0000008,+0000041,-0000081,+0004148,-0000788,+0000486,-0002297,14:59:15.003957
0.148805,+0000024,-0000027,-0000013,+0000044,-0000095,+0004155,-0000772,+0000486,-0002312,14:59:15.003957
0.149138,+0000013,-0000013,-0000006,+0000055,-0000071,+0004153,-0000772,+0000486,-0002312,14:59:15.003957
0.149471,+0000017,-0000023,-0000010,+0000033,-0000095,+0004141,-0000772,+0000486,-0002312,14:59:15.005956
0.149804,+0000006,-0000016,-0000016,+0000044,-0000092,+0004161,-0000770,+0000472,-0002339,14:59:15.005956
0.150137,+0000013,-0000021,+0000003,+0000030,-0000091,+0004144,-0000770,+0000472,-0002339,14:59:15.005956
0.150470,+0000016,-0000046,-0000013,+0000036,-0000090,+0004145,-0000770,+0000472,-0002339,14:59:15.005956
0.150803,+0000024,-0000031,-0000011,+0000041,-0000095,+0004152,-0000784,+0000476,-0002323,14:59:15.005956
0.151136,+0000010,-0000029,-0000013,+0000054,-0000105,+0004135,-0000784,+0000476,-0002323,14:59:15.005956
0.151469,+0000011,-0000018,-0000007,+0000059,-0000097,+0004142,-0000784,+0000476,-0002323,14:59:15.005956
0.151802,+0000010,-0000015,+0000001,+0000052,-0000077,+0004145,-0000780,+0000464,-0002325,14:59:15.005956
0.152135,+0000014,-0000022,+0000003,+0000036,-0000091,+0004154,-0000780,+0000464,-0002325,14:59:15.005956
0.152468,+0000032,-0000050,-0000010,+0000038,-0000086,+0004136,-0000780,+0000464,-0002325,14:59:15.005956
0.152801,-0000002,-0000023,-0000008,+0000059,-0000094,+0004147,-0000774,+0000460,-0002311,14:59:15.005956
0.153134,+0000028,-0000018,-0000007,+0000044,-0000091,+0004141,-0000774,+0000460,-0002311,14:59:15.007954
0.153467,-0000014,-0000013,-0000004,+0000051,-0000100,+0004154,-0000774,+0000460,-0002311,14:59:15.007954
0.153800,+0000028,-0000023,-0000013,+0000053,-0000098,+0004144,-0000782,+0000468,-0002309,14:59:15.007954
0.154133,+0000011,-0000021,-0000011,+0000043,-0000090,+0004154,-0000782,+0000468,-0002309,14:59:15.007954
0.154466,+0000020,-0000031,+0000006,+0000043,-0000084,+0004149,-0000782,+0000468,-0002309,14:59:15.007954
0.154799,+0000028,-0000042,-0000026,+0000066,-0000079,+0004148,-0000772,+0000460,-0002306,14:59:15.007954
0.155132,+0000020,-0000023,-0000005,+0000037,-0000084,+0004175,-0000772,+0000460,-0002306,14:59:15.007954
0.155465,-0000017,-0000015,-0000010,+0000043,-0000078,+0004163,-0000772,+0000460,-0002306,14:59:15.007954
0.155800,+0000005,-0000011,+0000000,+0000044,-0000092,+0004173,-0000778,+0000486,-0002321,14:59:15.007954
0.156131,+0000008,-0000024,-0000016,+0000059,-0000090,+0004132,-0000778,+0000486,-0002321,14:59:15.007954
0.156464,+0000021,-0000034,+0000001,+0000042,-0000087,+0004145,-0000778,+0000486,-0002321,14:59:15.007954
0.156797,+0000027,-0000028,-0000018,+0000046,-0000077,+0004149,-0000774,+0000482,-0002321,14:59:15.007954
0.157130,+0000018,-0000015,-0000013,+0000043,-0000083,+0004141,-0000774,+0000482,-0002321,14:59:15.007954
0.157463,-0000001,+0000000,+0000001,+0000063,-0000104,+0004153,-0000774,+0000482,-0002321,14:59:15.007954
0.157796,+0000008,-0000026,-0000013,+0000054,-0000089,+0004147,-0000782,+0000472,-0002312,14:59:15.007954
0.158129,+0000019,-0000022,-0000005,+0000023,-0000075,+0004135,-0000782,+0000472,-0002312,14:59:15.007954
0.158462,+0000019,-0000035,-0000011,+0000019,-0000095,+0004149,-0000782,+0000472,-0002312,14:59:15.007954
0.158795,+0000021,-0000037,-0000011,+0000052,-0000078,+0004151,-0000782,+0000488,-0002313,14:59:15.007954
0.159128,+0000002,+0000000,+0000006,+0000042,-0000091,+0004156,-0000782,+0000488,-0002313,14:59:15.007954
0.159461,+0000016,+0000003,-0000005,+0000043,-0000093,+0004165,-0000782,+0000488,-0002313,14:59:15.007954
0.159794,+0000027,-0000040,-0000004,+0000049,-0000081,+0004140,-0000788,+0000470,-0002305,14:59:15.007954
0.160127,+0000011,-0000032,-0000010,+0000037,-0000078,+0004147,-0000788,+0000470,-0002305,14:59:15.007954
0.160460,+0000025,-0000027,-0000016,+0000056,-0000083,+0004172,-0000788,+0000470,-0002305,14:59:15.007954
0.160793,+0000013,-0000024,-0000002,+0000029,-0000081,+0004137,-0000774,+0000476,-0002322,14:59:15.007954
0.161126,+0000003,-0000012,-0000014,+0000034,-0000085,+0004155,-0000774,+0000476,-0002322,14:59:15.007954
0.161459,+0000014,-0000010,+0000006,+0000055,-0000081,+0004142,-0000774,+0000476,-0002322,14:59:15.007954
0.161792,+0000005,-0000018,-0000008,+0000031,-0000092,+0004152,-0000766,+0000472,-0002328,14:59:15.007954
0.162125,+0000030,-0000026,-0000015,+0000049,-0000089,+0004140,-0000766,+0000472,-0002328,14:59:15.007954
0.162458,+0000020,-0000013,-0000013,+0000036,-0000093,+0004136,-0000766,+0000472,-0002328,14:59:15.007954
0.162791,+0000019,-0000021,-0000013,+0000052,-0000083,+0004144,-0000774,+0000472,-0002330,14:59:15.007954
0.163124,+0000001,-0000008,-0000005,+0000031,-0000079,+0004166,-0000774,+0000472,-0002330,14:59:15.007954
0.163457,+0000019,-0000031,-0000013,+0000047,-0000069,+0004145,-0000774,+0000472,-0002330,14:59:15.008954
0.163790,+0000008,-0000023,-0000007,+0000047,-0000077,+0004141,-0000764,+0000470,-0002292,14:59:15.008954
0.164123,+0000008,-0000034,-0000016,+0000045,-0000084,+0004153,-0000764,+0000470,-0002292,14:59:15.008954
0.164456,+0000021,-0000032,-0000014,+0000047,-0000091,+0004163,-0000764,+0000470,-0002292,14:59:15.008954
0.164789,+0000003,-0000019,+0000006,+0000057,-0000078,+0004171,-0000784,+0000472,-0002301,14:59:15.008954
0.165122,+0000014,-0000021,-0000007,+0000051,-0000098,+0004163,-0000784,+0000472,-0002301,14:59:15.008954
0.165455,+0000005,-0000015,-0000015,+0000039,-0000114,+0004149,-0000784,+0000472,-0002301,14:59:15.008954
0.165788,+0000016,-0000024,+0000004,+0000049,-0000086,+0004149,-0000776,+0000470,-0002319,14:59:15.008954
0.166121,+0000014,-0000018,-0000013,+0000048,-0000075,+0004135,-0000776,+0000470,-0002319,14:59:15.008954
0.166454,+0000016,-0000045,-0000005,+0000034,-0000064,+0004146,-0000776,+0000470,-0002319,14:59:15.008954
0.166787,+0000002,-0000018,-0000013,+0000054,-0000077,+0004153,-0000770,+0000480,-0002306,14:59:15.008954
0.167120,+0000013,-0000016,-0000013,+0000042,-0000093,+0004146,-0000770,+0000480,-0002306,14:59:15.008954
0.167453,+0000011,-0000011,-0000008,+0000039,-0000078,+0004145,-0000770,+0000480,-0002306,14:59:15.008954
0.167786,+0000011,-0000021,+0000001,+0000045,-0000079,+0004166,-0000774,+0000454,-0002309,14:59:15.008954
0.168119,+0000020,-0000040,-0000019,+0000053,-0000087,+0004150,-0000774,+0000454,-0002309,14:59:15.008954
0.168452,+0000019,-0000023,+0000001,+0000047,-0000084,+0004154,-0000774,+0000454,-0002309,14:59:15.008954
0.168785,+0000022,-0000020,-0000020,+0000046,-0000077,+0004133,-0000778,+0000472,-0002286,14:59:15.008954
0.169118,+0000002,-0000022,-0000008,+0000050,-0000080,+0004153,-0000778,+0000472,-0002286,14:59:15.008954
0.169451,+0000001,-0000019,-0000014,+0000037,-0000080,+0004169,-0000778,+0000472,-0002286,14:59:15.008954
0.169784,+0000017,-0000024,+0000000,+0000045,-0000091,+0004162,-0000782,+0000470,-0002303,14:59:15.008954
0.170117,+0000030,-0000037,-0000018,+0000035,-0000084,+0004168,-0000782,+0000470,-0002303,14:59:15.020975
0.170451,+0000016,-0000029,-0000010,+0000037,-0000088,+0004134,-0000782,+0000470,-0002303,14:59:15.020975
0.170785,+0000016,-0000026,-0000007,+0000048,-0000087,+0004148,-0000766,+0000468,-0002298,14:59:15.020975
0.171512,+0000018,-0000026,-0000004,+0000051,-0000073,+0004150,-0000766,+0000468,-0002298,14:59:15.020975
0.172058,+0000014,-0000005,-0000008,+0000043,-0000094,+0004153,-0000766,+0000468,-0002298,14:59:15.020975
0.172255,+0000002,-0000023,-0000003,+0000054,-0000100,+0004155,-0000772,+0000476,-0002332,14:59:15.020975
0.172522,+0000022,-0000027,-0000012,+0000046,-0000087,+0004153,-0000772,+0000476,-0002332,14:59:15.020975
0.172887,+0000003,-0000027,-0000005,+0000062,-0000075,+0004149,-0000772,+0000476,-0002332,14:59:15.020975
0.173115,+0000011,-0000019,-0000002,+0000053,-0000100,+0004145,-0000762,+0000480,-0002324,14:59:15.020975
0.173447,+0000030,-0000037,-0000014,+0000052,-0000075,+0004145,-0000762,+0000480,-0002324,14:59:15.020975
0.173780,+0000027,-0000033,-0000014,+0000050,-0000086,+0004158,-0000762,+0000480,-0002324,14:59:15.020975
0.174113,+0000016,-0000035,-0000005,+0000045,-0000089,+0004173,-0000784,+0000466,-0002324,14:59:15.020975
0.174446,+0000021,-0000007,-0000010,+0000053,-0000077,+0004168,-0000784,+0000466,-0002324,14:59:15.020975
0.174779,+0000008,-0000023,-0000005,+0000044,-0000091,+0004152,-0000784,+0000466,-0002324,14:59:15.020975
0.175112,+0000016,-0000016,-0000003,+0000037,-0000080,+0004143,-0000772,+0000500,-0002318,14:59:15.020975
0.175445,+0000019,-0000022,+0000003,+0000035,-0000105,+0004149,-0000772,+0000500,-0002318,14:59:15.020975
0.175778,+0000010,-0000032,-0000007,+0000050,-0000089,+0004157,-0000772,+0000500,-0002318,14:59:15.020975
0.176111,+0000029,-0000018,-0000007,+0000055,-0000089,+0004166,-0000778,+0000468,-0002344,14:59:15.020975
0.176444,+0000013,-0000012,-0000011,+0000066,-0000077,+0004147,-0000778,+0000468,-0002344,14:59:15.020975
0.176777,+0000011,-0000018,-0000005,+0000055,-0000075,+0004152,-0000778,+0000468,-0002344,14:59:15.020975
0.177110,+0000003,-0000029,-0000013,+0000055,-0000094,+0004159,-0000784,+0000470,-0002322,14:59:15.020975
0.177444,+0000016,-0000015,+0000001,+0000058,-0000078,+0004135,-0000784,+0000470,-0002322,14:59:15.020975
0.177776,+0000027,-0000042,-0000007,+0000042,-0000075,+0004157,-0000784,+0000470,-0002322,14:59:15.020975
0.178109,+0000021,-0000021,-0000010,+0000034,-0000100,+0004141,-0000778,+0000470,-0002330,14:59:15.020975
0.178442,+0000013,-0000040,-0000010,+0000040,-0000090,+0004137,-0000778,+0000470,-0002330,14:59:15.020975
0.178775,+0000011,-0000003,-0000020,+0000048,-0000064,+0004150,-0000778,+0000470,-0002330,14:59:15.020975
0.179108,+0000007,-0000015,+0000000,+0000062,-0000102,+0004138,-0000790,+0000466,-0002325,14:59:15.020975
0.179441,+0000013,-0000026,-0000003,+0000053,-0000088,+0004138,-0000790,+0000466,-0002325,14:59:15.020975
0.179774,+0000020,-0000034,-0000005,+0000024,-0000105,+0004151,-0000790,+0000466,-0002325,14:59:15.020975
0.180107,+0000024,-0000032,-0000018,+0000044,-0000083,+0004155,-0000790,+0000456,-0002321,14:59:15.020975
0.180440,+0000006,-0000015,+0000000,+0000052,-0000087,+0004153,-0000790,+0000456,-0002321,14:59:15.020975
0.180773,+0000009,-0000042,-0000014,+0000046,-0000089,+0004145,-0000790,+0000456,-0002321,14:59:15.020975
0.181106,+0000004,+0000001,-0000008,+0000023,-0000090,+0004143,-0000776,+0000476,-0002335,14:59:15.020975
0.181439,+0000003,-0000026,+0000000,+0000046,-0000086,+0004133,-0000776,+0000476,-0002335,14:59:15.020975
0.181772,+0000010,-0000031,-0000010,+0000071,-0000076,+0004147,-0000776,+0000476,-0002335,14:59:15.020975
0.182105,+0000025,-0000029,-0000005,+0000047,-0000096,+0004160,-0000770,+0000476,-0002350,14:59:15.020975
0.182438,+0000005,-0000025,-0000018,+0000047,-0000116,+0004140,-0000770,+0000476,-0002350,14:59:15.021976
0.182771,+0000000,-0000018,+0000000,+0000048,-0000075,+0004147,-0000770,+0000476,-0002350,14:59:15.021976
0.183104,-0000003,-0000010,+0000008,+0000042,-0000067,+0004142,-0000762,+0000468,-0002323,14:59:15.021976
0.183437,+0000024,-0000039,-0000018,+0000052,-0000091,+0004150,-0000762,+0000468,-0002323,14:59:15.021976
0.183770,+0000011,-0000026,+0000011,+0000078,-0000092,+0004151,-0000762,+0000468,-0002323,14:59:15.021976
0.184103,+0000022,-0000034,-0000022,+0000049,-0000088,+0004142,-0000772,+0000484,-0002327,14:59:15.022976
0.184436,+0000011,-0000021,-0000011,+0000045,-0000099,+0004149,-0000772,+0000484,-0002327,14:59:15.022976
0.184769,-0000014,+0000006,+0000006,+0000060,-0000075,+0004151,-0000772,+0000484,-0002327,14:59:15.022976
0.185102,+0000021,-0000031,-0000010,+0000059,-0000071,+0004154,-0000782,+0000462,-0002298,14:59:15.022976
0.185435,+0000025,-0000032,-0000007,+0000029,-0000060,+0004164,-0000782,+0000462,-0002298,14:59:15.023977
0.185783,+0000013,-0000031,-0000013,+0000047,-0000085,+0004147,-0000782,+0000462,-0002298,14:59:15.023977
0.186101,+0000013,-0000032,+0000004,+0000062,-0000084,+0004150,-0000772,+0000476,-0002304,14:59:15.023977
0.186434,+0000002,-0000008,-0000010,+0000060,-0000100,+0004156,-0000772,+0000476,-0002304,14:59:15.023977
0.186767,-0000007,+0000000,+0000006,+0000054,-0000072,+0004140,-0000772,+0000476,-0002304,14:59:15.023977
0.187100,+0000032,-0000032,-0000019,+0000053,-0000076,+0004162,-0000786,+0000452,-0002309,14:59:15.023977
0.187433,+0000007,-0000032,+0000004,+0000046,-0000078,+0004153,-0000786,+0000452,-0002309,14:59:15.023977
0.187766,+0000031,-0000038,-0000013,+0000032,-0000092,+0004160,-0000786,+0000452,-0002309,14:59:15.023977
0.188099,+0000019,-0000018,-0000003,+0000033,-0000087,+0004168,-0000786,+0000478,-0002325,14:59:15.023977
0.188432,-0000003,-0000007,-0000011,+0000045,-0000070,+0004150,-0000786,+0000478,-0002325,14:59:15.023977
0.188765,+0000021,-0000025,-0000008,+0000038,-0000070,+0004146,-0000786,+0000478,-0002325,14:59:15.023977
0.189098,+0000005,-0000012,-0000008,+0000051,-0000075,+0004161,-0000778,+0000464,-0002338,14:59:15.023977
0.189431,+0000011,-0000030,-0000005,+0000051,-0000066,+0004160,-0000778,+0000464,-0002338,14:59:15.023977
0.189764,+0000031,-0000024,-0000007,+0000051,-0000092,+0004163,-0000778,+0000464,-0002338,14:59:15.023977
0.190097,+0000005,-0000015,-0000013,+0000029,-0000076,+0004168,-0000772,+0000464,-0002299,14:59:15.023977
0.190430,+0000011,-0000008,-0000010,+0000055,-0000088,+0004161,-0000772,+0000464,-0002299,14:59:15.023977
0.190763,+0000004,-0000021,-0000008,+0000048,-0000087,+0004151,-0000772,+0000464,-0002299,14:59:15.023977
0.191096,+0000013,-0000016,-0000016,+0000045,-0000086,+0004165,-0000758,+0000486,-0002326,14:59:15.023977
0.191429,+0000017,-0000037,-0000013,+0000043,-0000084,+0004157,-0000758,+0000486,-0002326,14:59:15.023977
0.191762,+0000022,-0000031,-0000007,+0000062,-0000090,+0004141,-0000758,+0000486,-0002326,14:59:15.023977
0.192095,-0000005,-0000015,-0000010,+0000044,-0000092,+0004160,-0000762,+0000474,-0002316,14:59:15.023977
0.192428,+0000011,-0000019,-0000010,+0000049,-0000085,+0004136,-0000762,+0000474,-0002316,14:59:15.023977
0.192761,+0000019,-0000016,-0000008,+0000056,-0000082,+0004155,-0000762,+0000474,-0002316,14:59:15.023977
0.193094,+0000014,-0000031,-0000015,+0000046,-0000091,+0004140,-0000776,+0000472,-0002330,14:59:15.023977
0.193427,+0000025,-0000045,+0000000,+0000051,-0000085,+0004164,-0000776,+0000472,-0002330,14:59:15.023977
0.193760,+0000025,-0000028,-0000011,+0000067,-0000101,+0004161,-0000776,+0000472,-0002330,14:59:15.023977
0.194093,+0000011,-0000026,-0000016,+0000068,-0000100,+0004137,-0000780,+0000478,-0002321,14:59:15.023977
0.194426,-0000002,-0000016,-0000003,+0000046,-0000076,+0004154,-0000780,+0000478,-0002321,14:59:15.024982
0.194759,+0000019,-0000027,-0000007,+0000037,-0000110,+0004141,-0000780,+0000478,-0002321,14:59:15.024982
0.195092,+0000008,-0000029,+0000001,+0000053,-0000108,+0004154,-0000786,+0000468,-0002327,14:59:15.024982
0.195425,+0000017,-0000026,-0000010,+0000061,-0000088,+0004148,-0000786,+0000468,-0002327,14:59:15.028983
0.195758,+0000025,-0000037,-0000013,+0000040,-0000096,+0004141,-0000786,+0000468,-0002327,14:59:15.028983
0.196107,+0000011,-0000028,+0000006,+0000029,-0000086,+0004141,-0000778,+0000482,-0002308,14:59:15.028983
0.196424,+0000018,-0000002,-0000027,+0000055,-0000098,+0004128,-0000778,+0000482,-0002308,14:59:15.028983
0.196757,+0000025,-0000034,-0000010,+0000040,-0000086,+0004143,-0000778,+0000482,-0002308,14:59:15.028983
0.197090,+0000017,-0000029,-0000018,+0000042,-0000092,+0004164,-0000756,+0000476,-0002345,14:59:15.028983
0.197423,+0000022,-0000042,-0000007,+0000051,-0000089,+0004168,-0000756,+0000476,-0002345,14:59:15.028983
0.197756,+0000022,-0000042,-0000019,+0000061,-0000092,+0004160,-0000756,+0000476,-0002345,14:59:15.028983
0.198089,+0000003,-0000018,-0000005,+0000057,-0000089,+0004137,-0000760,+0000464,-0002333,14:59:15.028983
0.198422,+0000007,-0000013,-0000007,+0000028,-0000093,+0004142,-0000760,+0000464,-0002333,14:59:15.028983
0.198755,+0000013,-0000012,+0000001,+0000047,-0000089,+0004153,-0000760,+0000464,-0002333,14:59:15.028983
0.199101,+0000020,-0000029,-0000019,+0000043,-0000096,+0004147,-0000772,+0000484,-0002331,14:59:15.028983
0.199421,+0000013,-0000032,-0000008,+0000039,-0000094,+0004170,-0000772,+0000484,-0002331,14:59:15.028983
0.199754,-0000001,-0000016,-0000005,+0000035,-0000073,+0004150,-0000772,+0000484,-0002331,14:59:15.028983
0.200087,-0000008,-0000007,-0000005,+0000050,-0000078,+0004145,-0000776,+0000476,-0002337,14:59:15.028983
0.200420,+0000016,-0000010,-0000004,+0000058,-0000088,+0004160,-0000776,+0000476,-0002337,14:59:15.028983
0.200753,+0000013,-0000024,-0000012,+0000024,-0000094,+0004149,-0000776,+0000476,-0002337,14:59:15.028983
0.201112,+0000024,-0000040,-0000008,+0000044,-0000083,+0004152,-0000776,+0000466,-0002319,14:59:15.028983
0.201419,+0000030,-0000031,-0000013,+0000044,-0000075,+0004152,-0000776,+0000466,-0002319,14:59:15.028983
0.201752,-0000001,-0000020,+0000003,+0000047,-0000082,+0004156,-0000776,+0000466,-0002319,14:59:15.028983
0.202085,+0000014,+0000000,-0000019,+0000059,-0000094,+0004141,-0000770,+0000472,-0002334,14:59:15.028983
0.202419,+0000014,-0000024,-0000002,+0000037,-0000103,+0004149,-0000770,+0000472,-0002334,14:59:15.028983
0.202956,+0000025,-0000053,-0000026,+0000054,-0000092,+0004156,-0000770,+0000472,-0002334,14:59:15.028983
0.203159,+0000010,-0000015,-0000003,+0000042,-0000081,+0004142,-0000778,+0000462,-0002322,14:59:15.028983
0.203429,+0000019,-0000035,-0000011,+0000044,-0000088,+0004136,-0000778,+0000462,-0002322,14:59:15.028983
0.203754,+0000011,-0000026,-0000005,+0000062,-0000073,+0004140,-0000778,+0000462,-0002322,14:59:15.028983
0.204083,+0000021,-0000018,-0000008,+0000053,-0000090,+0004136,-0000788,+0000466,-0002340,14:59:15.028983
0.204417,+0000003,-0000008,-0000013,+0000052,-0000092,+0004158,-0000788,+0000466,-0002340,14:59:15.028983
0.204749,+0000016,-0000018,-0000005,+0000055,-0000084,+0004146,-0000788,+0000466,-0002340,14:59:15.028983
0.205082,+0000021,-0000030,-0000007,+0000051,-0000089,+0004144,-0000778,+0000484,-0002342,14:59:15.028983
0.205416,+0000027,-0000032,-0000013,+0000047,-0000111,+0004160,-0000778,+0000484,-0002342,14:59:15.028983
0.205748,+0000008,-0000024,-0000014,+0000049,-0000118,+0004153,-0000778,+0000484,-0002342,14:59:15.028983
0.206082,+0000003,-0000010,-0000001,+0000061,-0000109,+0004155,-0000774,+0000460,-0002319,14:59:15.028983
0.206414,+0000008,-0000013,-0000010,+0000054,-0000095,+0004139,-0000774,+0000460,-0002319,14:59:15.028983
0.206748,+0000008,-0000027,+0000003,+0000047,-0000083,+0004154,-0000774,+0000460,-0002319,14:59:15.028983
0.207080,+0000004,-0000029,-0000011,+0000067,-0000083,+0004154,-0000784,+0000488,-0002326,14:59:15.028983
0.207413,+0000029,-0000030,-0000011,+0000045,-0000094,+0004152,-0000784,+0000488,-0002326,14:59:15.028983
0.207746,+0000005,-0000019,-0000017,+0000040,-0000085,+0004163,-0000784,+0000488,-0002326,14:59:15.029983
0.208079,+0000006,-0000013,+0000001,+0000025,-0000084,+0004139,-0000768,+0000470,-0002304,14:59:15.029983
0.208412,+0000007,-0000008,-0000018,+0000037,-0000081,+0004138,-0000768,+0000470,-0002304,14:59:15.029983
0.208745,+0000013,-0000034,-0000011,+0000041,-0000092,+0004142,-0000768,+0000470,-0002304,14:59:15.029983
0.209078,+0000010,-0000016,+0000003,+0000051,-0000097,+0004139,-0000776,+0000478,-0002304,14:59:15.029983
0.209411,+0000022,-0000038,-0000018,+0000053,-0000072,+0004167,-0000776,+0000478,-0002304,14:59:15.029983
0.209744,+0000007,-0000031,-0000013,+0000054,-0000079,+0004148,-0000776,+0000478,-0002304,14:59:15.029983
0.210077,+0000013,-0000011,-0000004,+0000049,-0000077,+0004127,-0000766,+0000470,-0002346,14:59:15.029983
0.210410,+0000010,-0000008,-0000002,+0000060,-0000079,+0004129,-0000766,+0000470,-0002346,14:59:15.029983
0.210743,+0000008,-0000034,-0000013,+0000045,-0000069,+0004162,-0000766,+0000470,-0002346,14:59:15.029983
0.211076,+0000030,-0000035,-0000002,+0000050,-0000071,+0004139,-0000782,+0000480,-0002331,14:59:15.029983
0.211409,+0000019,-0000021,-0000002,+0000044,-0000083,+0004160,-0000782,+0000480,-0002331,14:59:15.029983
0.211742,+0000019,-0000030,-0000018,+0000041,-0000082,+0004159,-0000782,+0000480,-0002331,14:59:15.029983
0.212075,-0000002,+0000004,+0000012,+0000036,-0000096,+0004165,-0000770,+0000480,-0002317,14:59:15.029983
0.212408,+0000009,-0000029,-0000022,+0000032,-0000095,+0004136,-0000770,+0000480,-0002317,14:59:15.029983
0.212741,+0000022,-0000034,-0000005,+0000049,-0000087,+0004151,-0000770,+0000480,-0002317,14:59:15.029983
0.213074,+0000022,-0000040,-0000013,+0000034,-0000073,+0004145,-0000780,+0000488,-0002325,14:59:15.029983
0.213407,+0000011,-0000026,-0000007,+0000041,-0000090,+0004146,-0000780,+0000488,-0002325,14:59:15.029983
0.213740,-0000005,+0000012,-0000013,+0000046,-0000094,+0004140,-0000780,+0000488,-0002325,14:59:15.029983
0.214073,-0000001,-0000013,+0000000,+0000050,-0000092,+0004141,-0000796,+0000470,-0002347,14:59:15.029983
0.214406,+0000007,-0000034,-0000008,+0000054,-0000098,+0004170,-0000796,+0000470,-0002347,14:59:15.029983
0.214739,+0000012,-0000027,-0000011,+0000054,-0000082,+0004155,-0000796,+0000470,-0002347,14:59:15.029983
0.215072,+0000024,-0000048,-0000018,+0000051,-0000082,+0004130,-0000768,+0000470,-0002324,14:59:15.029983
0.215405,+0000022,-0000008,-0000003,+0000055,-0000089,+0004151,-0000768,+0000470,-0002324,14:59:15.029983
0.215738,+0000019,-0000024,-0000013,+0000037,-0000075,+0004145,-0000768,+0000470,-0002324,14:59:15.029983
0.216071,+0000006,-0000011,-0000008,+0000062,-0000078,+0004167,-0000764,+0000460,-0002305,14:59:15.029983
0.216404,+0000008,-0000029,-0000004,+0000068,-0000083,+0004138,-0000764,+0000460,-0002305,14:59:15.029983
0.216737,+0000020,-0000031,-0000008,+0000047,-0000078,+0004133,-0000764,+0000460,-0002305,14:59:15.029983
0.217070,+0000016,-0000018,-0000019,+0000057,-0000078,+0004135,-0000756,+0000472,-0002341,14:59:15.029983
0.217403,+0000007,-0000019,+0000005,+0000043,-0000080,+0004143,-0000756,+0000472,-0002341,14:59:15.029983
0.217736,+0000005,-0000018,-0000019,+0000050,-0000088,+0004128,-0000756,+0000472,-0002341,14:59:15.029983
0.218069,+0000019,-0000008,-0000002,+0000057,-0000083,+0004144,-0000766,+0000472,-0002337,14:59:15.029983
0.218402,-0000001,-0000016,+0000001,+0000038,-0000091,+0004143,-0000766,+0000472,-0002337,14:59:15.029983
0.218735,+0000030,-0000050,-0000005,+0000047,-0000108,+0004155,-0000766,+0000472,-0002337,14:59:15.029983
0.219068,+0000004,-0000030,-0000017,+0000054,-0000101,+0004146,-0000788,+0000466,-0002333,14:59:15.029983
0.219401,+0000024,-0000031,-0000011,+0000060,-0000092,+0004151,-0000788,+0000466,-0002333,14:59:15.029983
0.219734,-0000001,-0000007,-0000010,+0000047,-0000106,+0004136,-0000788,+0000466,-0002333,14:59:15.030982
0.220067,+0000008,-0000005,-0000007,+0000046,-0000092,+0004130,-0000770,+0000474,-0002312,14:59:15.103847
0.220401,+0000009,-0000026,+0000001,+0000053,-0000095,+0004157,-0000770,+0000474,-0002312,14:59:15.103847
0.220733,+0000019,-0000034,-0000018,+0000055,-0000040,+0004166,-0000770,+0000474,-0002312,14:59:15.103847
0.221073,+0000011,-0000024,-0000002,+0000062,-0000076,+0004165,-0000766,+0000486,-0002326,14:59:15.103847
0.221529,+0000016,-0000034,-0000008,+0000051,-0000091,+0004163,-0000766,+0000486,-0002326,14:59:15.103847
0.221891,+0000000,-0000023,+0000000,+0000038,-0000090,+0004162,-0000766,+0000486,-0002326,14:59:15.103847
0.222216,+0000029,-0000021,-0000016,+0000041,-0000084,+0004163,-0000762,+0000470,-0002309,14:59:15.103847
0.222655,+0000017,-0000027,-0000016,+0000034,-0000074,+0004149,-0000762,+0000470,-0002309,14:59:15.103847
0.222845,+0000017,-0000027,-0000016,+0000034,-0000074,+0004149,-0000762,+0000470,-0002309,14:59:15.103847
0.223065,+0000002,-0000023,-0000004,+0000045,-0000093,+0004161,-0000762,+0000470,-0002309,14:59:15.103847
0.223399,+0000008,-0000008,-0000004,+0000051,-0000075,+0004155,-0000762,+0000470,-0002309,14:59:15.103847
0.223731,+0000013,-0000023,-0000008,+0000057,-0000079,+0004156,-0000762,+0000470,-0002309,14:59:15.103847
0.224071,+0000007,-0000003,-0000002,+0000043,-0000075,+0004162,-0000784,+0000452,-0002341,14:59:15.103847
0.224401,+0000011,-0000022,+0000004,+0000039,-0000083,+0004159,-0000784,+0000452,-0002341,14:59:15.103847
0.224729,+0000033,-0000045,-0000032,+0000047,-0000108,+0004141,-0000784,+0000452,-0002341,14:59:15.103847
0.225063,+0000002,-0000015,+0000014,+0000064,-0000097,+0004162,-0000762,+0000460,-0002322,14:59:15.103847
0.225395,+0000010,-0000021,-0000030,+0000063,-0000095,+0004162,-0000762,+0000460,-0002322,14:59:15.103847
0.225730,+0000014,-0000015,-0000018,+0000034,-0000100,+0004147,-0000762,+0000460,-0002322,14:59:15.103847
0.226062,+0000000,-0000003,+0000005,+0000041,-0000101,+0004137,-0000768,+0000458,-0002336,14:59:15.103847
0.226395,+0000027,-0000037,-0000015,+0000056,-0000092,+0004159,-0000768,+0000458,-0002336,14:59:15.103847
0.226728,+0000009,-0000034,-0000008,+0000040,-0000077,+0004144,-0000768,+0000458,-0002336,14:59:15.103847
0.227060,+0000033,-0000039,-0000013,+0000049,-0000108,+0004148,-0000780,+0000466,-0002307,14:59:15.104851
0.227394,+0000007,+0000009,+0000001,+0000039,-0000088,+0004156,-0000780,+0000466,-0002307,14:59:15.104851
0.227728,+0000006,-0000026,-0000007,+0000030,-0000096,+0004134,-0000780,+0000466,-0002307,14:59:15.104851
0.228060,+0000024,-0000031,-0000013,+0000057,-0000079,+0004139,-0000762,+0000468,-0002324,14:59:15.104851
0.228392,+0000007,-0000031,-0000002,+0000038,-0000076,+0004147,-0000762,+0000468,-0002324,14:59:15.104851
0.228725,+0000033,-0000030,-0000016,+0000053,-0000094,+0004151,-0000762,+0000468,-0002324,14:59:15.104851
0.229058,+0000014,-0000008,-0000014,+0000054,-0000077,+0004147,-0000758,+0000472,-0002342,14:59:15.104851
0.229391,+0000011,-0000013,-0000002,+0000063,-0000083,+0004155,-0000758,+0000472,-0002342,14:59:15.104851
0.229724,+0000002,-0000010,-0000010,+0000046,-0000095,+0004138,-0000758,+0000472,-0002342,14:59:15.104851
0.230057,+0000013,-0000021,-0000008,+0000035,-0000087,+0004137,-0000764,+0000466,-0002342,14:59:15.105847
0.230390,+0000022,-0000042,-0000004,+0000057,-0000081,+0004148,-0000764,+0000466,-0002342,14:59:15.105847
0.230725,+0000022,-0000015,-0000009,+0000051,-0000105,+0004150,-0000764,+0000466,-0002342,14:59:15.105847
0.231057,+0000004,-0000011,-0000002,+0000020,-0000087,+0004171,-0000782,+0000470,-0002324,14:59:15.105847
0.231389,+0000003,-0000018,-0000002,+0000046,-0000094,+0004160,-0000782,+0000470,-0002324,14:59:15.105847
0.231722,+0000011,-0000008,-0000016,+0000039,-0000098,+0004169,-0000782,+0000470,-0002324,14:59:15.105847
0.232055,+0000005,-0000024,-0000007,+0000057,-0000084,+0004141,-0000768,+0000482,-0002333,14:59:15.105847
0.232388,+0000020,-0000031,-0000030,+0000053,-0000067,+0004159,-0000768,+0000482,-0002333,14:59:15.105847
0.232721,+0000022,-0000045,-0000008,+0000054,-0000104,+0004156,-0000768,+0000482,-0002333,14:59:15.105847
0.233054,+0000018,-0000016,-0000008,+0000056,-0000105,+0004159,-0000778,+0000472,-0002330,14:59:15.105847
0.233387,+0000000,-0000013,-0000003,+0000052,-0000106,+0004158,-0000778,+0000472,-0002330,14:59:15.105847
0.233720,+0000014,-0000018,+0000000,+0000054,-0000101,+0004151,-0000778,+0000472,-0002330,14:59:15.105847
0.234053,+0000010,-0000029,-0000007,+0000040,-0000079,+0004140,-0000774,+0000476,-0002332,14:59:15.105847
0.234386,+0000036,-0000032,-0000007,+0000057,-0000091,+0004150,-0000774,+0000476,-0002332,14:59:15.105847
0.234719,+0000017,-0000028,-0000002,+0000049,-0000084,+0004145,-0000774,+0000476,-0002332,14:59:15.105847
0.235052,+0000011,-0000019,-0000008,+0000052,-0000084,+0004162,-0000778,+0000480,-0002332,14:59:15.105847
0.235385,-0000006,-0000015,-0000008,+0000056,-0000081,+0004159,-0000778,+0000480,-0002332,14:59:15.105847
0.235718,+0000009,-0000023,-0000010,+0000036,-0000081,+0004159,-0000778,+0000480,-0002332,14:59:15.105847
0.236051,+0000010,-0000021,-0000005,+0000053,-0000079,+0004160,-0000780,+0000464,-0002305,14:59:15.105847
0.236384,+0000017,-0000037,-0000006,+0000054,-0000088,+0004140,-0000780,+0000464,-0002305,14:59:15.105847
0.236717,+0000022,-0000021,-0000016,+0000039,-0000094,+0004136,-0000780,+0000464,-0002305,14:59:15.105847
0.237050,+0000016,-0000021,-0000002,+0000053,-0000088,+0004139,-0000778,+0000470,-0002320,14:59:15.105847
0.237383,+0000009,-0000013,-0000022,+0000045,-0000090,+0004158,-0000778,+0000470,-0002320,14:59:15.105847
0.237716,+0000016,-0000014,-0000008,+0000045,-0000104,+0004146,-0000778,+0000470,-0002320,14:59:15.105847
0.238049,+0000019,-0000027,-0000003,+0000053,-0000095,+0004149,-0000768,+0000496,-0002295,14:59:15.105847
0.238382,+0000016,-0000036,-0000002,+0000044,-0000084,+0004163,-0000768,+0000496,-0002295,14:59:15.105847
0.238715,+0000025,-0000042,-0000021,+0000058,-0000059,+0004154,-0000768,+0000496,-0002295,14:59:15.105847
0.239048,+0000005,-0000005,+0000003,+0000049,-0000094,+0004165,-0000792,+0000490,-0002331,14:59:15.105847
0.239381,+0000005,-0000002,+0000005,+0000035,-0000072,+0004136,-0000792,+0000490,-0002331,14:59:15.105847
0.239714,+0000010,-0000034,-0000007,+0000042,-0000092,+0004135,-0000792,+0000490,-0002331,14:59:15.105847
0.240047,+0000025,-0000021,+0000000,+0000040,-0000102,+0004144,-0000782,+0000484,-0002355,14:59:15.105847
0.240380,+0000013,-0000042,-0000011,+0000044,-0000083,+0004155,-0000782,+0000484,-0002355,14:59:15.105847
0.240713,+0000016,-0000027,+0000005,+0000035,-0000076,+0004149,-0000782,+0000484,-0002355,14:59:15.105847
0.241046,-0000008,+0000015,-0000002,+0000043,-0000084,+0004132,-0000770,+0000476,-0002310,14:59:15.105847
0.241379,+0000005,-0000016,-0000004,+0000046,-0000082,+0004160,-0000770,+0000476,-0002310,14:59:15.105847
0.241712,+0000014,-0000032,-0000004,+0000052,-0000090,+0004151,-0000770,+0000476,-0002310,14:59:15.106847
0.242045,+0000024,-0000027,-0000024,+0000041,-0000075,+0004152,-0000776,+0000476,-0002327,14:59:15.106847
0.242378,+0000024,-0000050,-0000010,+0000046,-0000088,+0004144,-0000776,+0000476,-0002327,14:59:15.106847
0.242711,+0000024,-0000016,-0000011,+0000049,-0000105,+0004137,-0000776,+0000476,-0002327,14:59:15.106847
0.243044,+0000003,-0000005,-0000002,+0000034,-0000085,+0004160,-0000772,+0000492,-0002351,14:59:15.106847
0.243377,+0000000,-0000022,-0000005,+0000054,-0000096,+0004167,-0000772,+0000492,-0002351,14:59:15.106847
0.243710,+0000010,-0000015,-0000002,+0000074,-0000091,+0004159,-0000772,+0000492,-0002351,14:59:15.106847
0.244043,+0000024,-0000045,-0000013,+0000067,-0000087,+0004161,-0000764,+0000476,-0002325,14:59:15.106847
0.244376,+0000032,-0000025,-0000016,+0000043,-0000085,+0004158,-0000764,+0000476,-0002325,14:59:15.106847
0.244709,+0000011,-0000021,-0000011,+0000046,-0000074,+0004168,-0000764,+0000476,-0002325,14:59:15.106847
0.245042,+0000011,-0000008,-0000005,+0000043,-0000095,+0004170,-0000766,+0000470,-0002318,14:59:15.106847
0.245375,+0000017,-0000016,-0000011,+0000058,-0000091,+0004171,-0000766,+0000470,-0002318,14:59:15.106847
0.245708,+0000010,-0000016,-0000002,+0000071,-0000076,+0004159,-0000766,+0000470,-0002318,14:59:15.106847
0.246041,+0000013,-0000040,-0000008,+0000055,-0000100,+0004144,-0000774,+0000484,-0002333,14:59:15.106847
0.246374,+0000021,-0000030,-0000014,+0000028,-0000094,+0004153,-0000774,+0000484,-0002333,14:59:15.106847
0.246707,+0000007,-0000026,-0000008,+0000045,-0000077,+0004158,-0000774,+0000484,-0002333,14:59:15.106847
0.247040,+0000007,-0000015,-0000008,+0000054,-0000084,+0004148,-0000766,+0000472,-0002316,14:59:15.106847
0.247373,+0000002,-0000012,-0000010,+0000047,-0000077,+0004156,-0000766,+0000472,-0002316,14:59:15.106847
0.247706,+0000014,-0000026,-0000002,+0000051,-0000091,+0004132,-0000766,+0000472,-0002316,14:59:15.106847
0.248039,+0000027,-0000031,-0000024,+0000076,-0000067,+0004150,-0000766,+0000474,-0002347,14:59:15.106847
0.248372,+0000016,-0000040,-0000008,+0000043,-0000099,+0004166,-0000766,+0000474,-0002347,14:59:15.106847
0.248705,+0000021,-0000024,-0000016,+0000041,-0000112,+0004133,-0000766,+0000474,-0002347,14:59:15.106847
0.249038,+0000007,-0000015,-0000005,+0000047,-0000095,+0004150,-0000782,+0000476,-0002339,14:59:15.106847
0.249371,+0000011,-0000005,-0000008,+0000041,-0000084,+0004161,-0000782,+0000476,-0002339,14:59:15.106847
0.249704,+0000019,-0000018,-0000007,+0000048,-0000089,+0004169,-0000782,+0000476,-0002339,14:59:15.106847
0.250037,+0000017,-0000043,-0000016,+0000054,-0000095,+0004144,-0000768,+0000472,-0002327,14:59:15.106847
0.250370,+0000012,-0000023,-0000002,+0000057,-0000066,+0004156,-0000768,+0000472,-0002327,14:59:15.106847
0.250703,+0000025,-0000024,-0000016,+0000046,-0000108,+0004160,-0000768,+0000472,-0002327,14:59:15.106847
0.251036,+0000008,-0000021,-0000011,+0000054,-0000096,+0004163,-0000754,+0000460,-0002328,14:59:15.106847
0.251369,-0000001,-0000020,+0000003,+0000048,-0000081,+0004168,-0000754,+0000460,-0002328,14:59:15.106847
0.251702,+0000029,-0000035,-0000007,+0000037,-0000065,+0004155,-0000754,+0000460,-0002328,14:59:15.106847
0.252035,+0000025,-0000029,-0000015,+0000056,-0000071,+0004150,-0000770,+0000456,-0002325,14:59:15.106847
0.252368,+0000021,-0000028,-0000002,+0000043,-0000089,+0004146,-0000770,+0000456,-0002325,14:59:15.106847
0.252701,+0000010,-0000018,-0000013,+0000053,-0000088,+0004147,-0000770,+0000456,-0002325,14:59:15.106847
0.253034,-0000009,+0000001,+0000009,+0000041,-0000073,+0004161,-0000782,+0000454,-0002343,14:59:15.106847
0.253367,+0000011,-0000021,-0000011,+0000043,-0000102,+0004168,-0000782,+0000454,-0002343,14:59:15.106847
0.253700,+0000008,-0000032,-0000007,+0000044,-0000087,+0004143,-0000782,+0000454,-0002343,14:59:15.106847
0.254033,+0000018,-0000026,-0000002,+0000046,-0000093,+0004165,-0000780,+0000472,-0002320,14:59:15.106847
0.254366,+0000022,-0000035,-0000023,+0000023,-0000080,+0004147,-0000780,+0000472,-0002320,14:59:15.106847
0.254699,-0000017,-0000005,+0000006,+0000052,-0000067,+0004159,-0000780,+0000472,-0002320,14:59:15.106847
0.255032,+0000019,-0000021,-0000010,+0000060,-0000089,+0004156,-0000772,+0000476,-0002337,14:59:15.106847
0.255365,+0000004,-0000010,+0000002,+0000057,-0000091,+0004148,-0000772,+0000476,-0002337,14:59:15.106847
0.255698,+0000019,-0000032,-0000015,+0000059,-0000080,+0004158,-0000772,+0000476,-0002337,14:59:15.106847
0.256031,+0000016,-0000046,+0000003,+0000051,-0000107,+0004173,-0000772,+0000472,-0002345,14:59:15.106847
0.256364,+0000016,-0000013,-0000013,+0000018,-0000072,+0004152,-0000772,+0000472,-0002345,14:59:15.106847
0.256697,+0000013,-0000013,+0000000,+0000043,-0000085,+0004166,-0000772,+0000472,-0002345,14:59:15.106847
0.257030,+0000007,-0000019,-0000011,+0000033,-0000091,+0004159,-0000762,+0000470,-0002322,14:59:15.106847
0.257363,+0000019,-0000012,-0000005,+0000043,-0000107,+0004151,-0000762,+0000470,-0002322,14:59:15.106847
0.257696,+0000018,-0000037,-0000011,+0000047,-0000088,+0004153,-0000762,+0000470,-0002322,14:59:15.106847
0.258042,+0000011,-0000016,-0000013,+0000051,-0000109,+0004131,-0000776,+0000482,-0002309,14:59:15.106847
0.258362,+0000002,+0000001,+0000003,+0000038,-0000105,+0004139,-0000776,+0000482,-0002309,14:59:15.106847
0.258695,+0000019,-0000023,-0000018,+0000064,-0000079,+0004142,-0000776,+0000482,-0002309,14:59:15.106847
0.259041,+0000003,-0000008,+0000001,+0000056,-0000098,+0004161,-0000780,+0000478,-0002312,14:59:15.106847
0.259361,+0000014,-0000026,-0000018,+0000047,-0000081,+0004143,-0000780,+0000478,-0002312,14:59:15.106847
0.259694,+0000011,-0000045,-0000004,+0000040,-0000088,+0004151,-0000780,+0000478,-0002312,14:59:15.106847
0.260040,+0000020,-0000026,-0000010,+0000036,-0000082,+0004130,-0000772,+0000480,-0002344,14:59:15.106847
0.260361,+0000011,-0000024,-0000002,+0000040,-0000079,+0004155,-0000772,+0000480,-0002344,14:59:15.106847
0.260693,-0000002,-0000011,-0000007,+0000041,-0000091,+0004144,-0000772,+0000480,-0002344,14:59:15.106847
0.261039,+0000007,-0000011,-0000010,+0000045,-0000089,+0004153,-0000784,+0000486,-0002319,14:59:15.106847
0.261361,+0000013,-0000021,-0000016,+0000067,-0000073,+0004137,-0000784,+0000486,-0002319,14:59:15.106847
0.261692,+0000013,-0000035,-0000014,+0000044,-0000080,+0004139,-0000784,+0000486,-0002319,14:59:15.107845
0.262028,+0000025,-0000027,-0000002,+0000058,-0000074,+0004153,-0000784,+0000476,-0002321,14:59:15.107845
0.262358,-0000003,-0000029,-0000015,+0000050,-0000082,+0004154,-0000784,+0000476,-0002321,14:59:15.107845
0.262691,+0000010,-0000018,-0000003,+0000056,-0000111,+0004138,-0000784,+0000476,-0002321,14:59:15.107845
0.263024,+0000002,+0000001,-0000003,+0000064,-0000081,+0004156,-0000776,+0000454,-0002325,14:59:15.107845
0.263358,+0000018,-0000015,-0000005,+0000050,-0000091,+0004137,-0000776,+0000454,-0002325,14:59:15.107845
0.263690,+0000018,-0000032,-0000014,+0000041,-0000075,+0004138,-0000776,+0000454,-0002325,14:59:15.107845
0.264023,+0000010,-0000019,-0000003,+0000055,-0000084,+0004150,-0000780,+0000476,-0002350,14:59:15.107845
0.264358,+0000021,-0000024,-0000016,+0000050,-0000085,+0004142,-0000780,+0000476,-0002350,14:59:15.107845
0.264689,+0000009,-0000016,-0000002,+0000064,-0000085,+0004148,-0000780,+0000476,-0002350,14:59:15.107845
0.265022,-0000003,+0000000,-0000004,+0000059,-0000086,+0004137,-0000768,+0000460,-0002349,14:59:15.107845
0.265358,+0000017,-0000037,-0000022,+0000058,-0000094,+0004149,-0000768,+0000460,-0002349,14:59:15.107845
0.265688,+0000016,-0000032,+0000000,+0000039,-0000076,+0004138,-0000768,+0000460,-0002349,14:59:15.107845
0.266021,+0000014,-0000018,-0000011,+0000041,-0000098,+0004141,-0000754,+0000464,-0002320,14:59:15.107845
0.266354,+0000007,-0000026,-0000002,+0000042,-0000074,+0004122,-0000754,+0000464,-0002320,14:59:15.107845
0.266687,+0000011,+0000006,-0000004,+0000045,-0000101,+0004139,-0000754,+0000464,-0002320,14:59:15.107845
0.267020,+0000008,-0000024,+0000000,+0000046,-0000106,+0004169,-0000774,+0000472,-0002329,14:59:15.107845
0.267354,+0000023,-0000032,-0000011,+0000048,-0000077,+0004148,-0000774,+0000472,-0002329,14:59:15.107845
0.267686,+0000030,-0000046,-0000013,+0000052,-0000088,+0004149,-0000774,+0000472,-0002329,14:59:15.107845
0.268019,+0000009,-0000024,-0000008,+0000051,-0000095,+0004121,-0000764,+0000462,-0002339,14:59:15.107845
0.268354,-0000005,-0000003,-0000010,+0000043,-0000088,+0004153,-0000764,+0000462,-0002339,14:59:15.107845
0.268685,+0000002,-0000013,-0000003,+0000036,-0000082,+0004147,-0000764,+0000462,-0002339,14:59:15.107845
0.269018,+0000010,-0000027,+0000009,+0000031,-0000095,+0004150,-0000760,+0000478,-0002342,14:59:15.107845
0.269354,+0000014,-0000029,-0000005,+0000033,-0000078,+0004155,-0000760,+0000478,-0002342,14:59:15.107845
0.269684,+0000027,-0000050,-0000019,+0000052,-0000097,+0004146,-0000760,+0000478,-0002342,14:59:15.107845
0.270017,+0000011,-0000019,-0000013,+0000049,-0000092,+0004149,-0000778,+0000480,-0002346,14:59:15.107845
0.270355,+0000006,-0000018,-0000003,+0000050,-0000066,+0004137,-0000778,+0000480,-0002346,14:59:15.122055
0.270685,+0000013,-0000016,-0000008,+0000043,-0000083,+0004153,-0000778,+0000480,-0002346,14:59:15.122055
0.271022,+0000012,-0000027,-0000005,+0000051,-0000077,+0004144,-0000772,+0000464,-0002341,14:59:15.122055
0.271618,+0000008,-0000015,+0000005,+0000044,-0000065,+0004157,-0000772,+0000464,-0002341,14:59:15.122055
0.271814,+0000018,-0000021,-0000008,+0000044,-0000065,+0004157,-0000772,+0000464,-0002341,14:59:15.122055
0.272179,-0000013,+0000004,+0000000,+0000062,-0000085,+0004156,-0000766,+0000476,-0002317,14:59:15.122055
0.272431,+0000017,-0000025,-0000005,+0000062,-0000085,+0004156,-0000766,+0000476,-0002317,14:59:15.122055
0.272684,-0000008,-0000002,-0000008,+0000055,-0000090,+0004158,-0000766,+0000476,-0002317,14:59:15.122055
0.273020,+0000002,-0000018,-0000007,+0000048,-0000098,+0004160,-0000772,+0000492,-0002328,14:59:15.122055
0.273352,+0000014,-0000015,-0000013,+0000057,-0000092,+0004161,-0000772,+0000492,-0002328,14:59:15.122055
0.273680,+0000003,-0000024,-0000008,+0000057,-0000082,+0004160,-0000772,+0000492,-0002328,14:59:15.123055
0.274013,+0000011,-0000018,-0000010,+0000049,-0000096,+0004153,-0000770,+0000462,-0002332,14:59:15.123055
0.274352,+0000007,-0000010,-0000011,+0000044,-0000092,+0004145,-0000770,+0000462,-0002332,14:59:15.123055
0.274679,+0000019,-0000018,-0000005,+0000038,-0000093,+0004146,-0000770,+0000462,-0002332,14:59:15.123055
0.275012,+0000014,-0000029,-0000005,+0000055,-0000074,+0004147,-0000772,+0000476,-0002353,14:59:15.123055
0.275351,+0000009,-0000019,-0000005,+0000039,-0000094,+0004155,-0000772,+0000476,-0002353,14:59:15.123055
0.275678,+0000022,-0000029,-0000013,+0000042,-0000089,+0004165,-0000772,+0000476,-0002353,14:59:15.123055
0.276011,+0000004,-0000010,-0000013,+0000032,-0000089,+0004166,-0000758,+0000472,-0002320,14:59:15.123055
0.276350,+0000016,-0000016,-0000013,+0000056,-0000090,+0004170,-0000758,+0000472,-0002320,14:59:15.123055
0.276677,-0000003,-0000021,-0000011,+0000070,-0000088,+0004144,-0000758,+0000472,-0002320,14:59:15.123055
0.277010,+0000025,-0000037,-0000011,+0000054,-0000095,+0004153,-0000766,+0000478,-0002353,14:59:15.123055
0.277349,+0000017,-0000034,-0000008,+0000056,-0000072,+0004128,-0000766,+0000478,-0002353,14:59:15.123055
0.277676,+0000018,-0000022,-0000007,+0000042,-0000079,+0004151,-0000766,+0000478,-0002353,14:59:15.123055
0.278009,+0000011,-0000020,-0000005,+0000037,-0000071,+0004158,-0000756,+0000484,-0002322,14:59:15.123055
0.278348,+0000010,-0000028,-0000013,+0000048,-0000088,+0004152,-0000756,+0000484,-0002322,14:59:15.123055
0.278675,+0000008,-0000018,-0000002,+0000048,-0000078,+0004155,-0000756,+0000484,-0002322,14:59:15.123055
0.279008,+0000019,-0000031,-0000008,+0000053,-0000104,+0004142,-0000750,+0000482,-0002352,14:59:15.128058
0.279347,+0000017,-0000035,-0000012,+0000033,-0000078,+0004126,-0000750,+0000482,-0002352,14:59:15.128058
0.279674,+0000014,-0000022,-0000007,+0000044,-0000093,+0004140,-0000750,+0000482,-0002352,14:59:15.128058
0.280007,+0000021,-0000020,-0000018,+0000036,-0000077,+0004147,-0000778,+0000468,-0002322,14:59:15.128058
0.280346,+0000002,-0000010,-0000005,+0000056,-0000091,+0004149,-0000778,+0000468,-0002322,14:59:15.128058
0.280673,+0000018,-0000021,-0000003,+0000052,-0000088,+0004138,-0000778,+0000468,-0002322,14:59:15.129066
0.281006,+0000019,-0000032,-0000005,+0000045,-0000084,+0004153,-0000764,+0000480,-0002334,14:59:15.129066
0.281345,+0000024,-0000040,-0000018,+0000046,-0000080,+0004151,-0000764,+0000480,-0002334,14:59:15.129066
0.281672,+0000020,-0000042,-0000024,+0000036,-0000105,+0004141,-0000764,+0000480,-0002334,14:59:15.129066
0.282005,+0000010,-0000010,-0000010,+0000034,-0000066,+0004157,-0000784,+0000480,-0002338,14:59:15.129066
0.282338,-0000009,-0000018,+0000005,+0000048,-0000086,+0004152,-0000784,+0000480,-0002338,14:59:15.129066
0.282671,+0000016,-0000021,-0000007,+0000053,-0000095,+0004131,-0000784,+0000480,-0002338,14:59:15.129066
0.283004,+0000025,-0000032,-0000010,+0000057,-0000092,+0004153,-0000776,+0000492,-0002339,14:59:15.129066
0.283337,+0000014,-0000027,-0000007,+0000035,-0000086,+0004160,-0000776,+0000492,-0002339,14:59:15.129066
0.283670,+0000027,-0000022,-0000007,+0000032,-0000084,+0004151,-0000776,+0000492,-0002339,14:59:15.129066
0.284004,-0000006,-0000002,+0000001,+0000048,-0000089,+0004165,-0000766,+0000486,-0002340,14:59:15.129066
0.284336,+0000019,-0000023,-0000022,+0000060,-0000101,+0004176,-0000766,+0000486,-0002340,14:59:15.129066
0.284669,+0000013,-0000013,-0000010,+0000019,-0000090,+0004149,-0000766,+0000486,-0002340,14:59:15.129066
0.285002,+0000005,-0000024,+0000001,+0000056,-0000068,+0004156,-0000766,+0000482,-0002322,14:59:15.130059
0.285335,+0000038,-0000021,+0000001,+0000031,-0000097,+0004168,-0000766,+0000482,-0002322,14:59:15.130059
0.285668,+0000007,-0000024,-0000018,+0000029,-0000097,+0004176,-0000766,+0000482,-0002322,14:59:15.130059
0.286001,+0000005,-0000016,+0000006,+0000053,-0000103,+0004182,-0000756,+0000490,-0002326,14:59:15.130059
0.286334,+0000019,-0000020,-0000014,+0000039,-0000083,+0004143,-0000756,+0000490,-0002326,14:59:15.130059
0.286667,+0000014,-0000019,-0000005,+0000055,-0000085,+0004184,-0000756,+0000490,-0002326,14:59:15.130059
0.287000,+0000014,-0000029,-0000022,+0000046,-0000092,+0004162,-0000774,+0000486,-0002331,14:59:15.133064
0.287333,+0000014,-0000027,-0000011,+0000050,-0000092,+0004145,-0000774,+0000486,-0002331,14:59:15.133064
0.287666,+0000013,-0000016,-0000010,+0000057,-0000106,+0004154,-0000774,+0000486,-0002331,14:59:15.133064
0.287999,+0000000,-0000016,-0000010,+0000046,-0000093,+0004150,-0000766,+0000466,-0002316,14:59:15.133064
0.288332,+0000021,-0000012,-0000011,+0000028,-0000081,+0004163,-0000766,+0000466,-0002316,14:59:15.133064
0.288665,+0000008,-0000031,-0000004,+0000038,-0000090,+0004151,-0000766,+0000466,-0002316,14:59:15.133064
0.288998,+0000010,-0000026,-0000013,+0000048,-0000089,+0004143,-0000762,+0000472,-0002313,14:59:15.133064
0.289331,+0000021,-0000034,-0000016,+0000041,-0000102,+0004156,-0000762,+0000472,-0002313,14:59:15.133064
0.289664,+0000011,-0000018,+0000001,+0000067,-0000080,+0004163,-0000762,+0000472,-0002313,14:59:15.133064
0.290005,+0000010,-0000013,-0000018,+0000057,-0000090,+0004162,-0000778,+0000470,-0002318,14:59:15.133064
0.290330,+0000010,-0000019,-0000008,+0000040,-0000088,+0004155,-0000778,+0000470,-0002318,14:59:15.134060
0.290663,+0000021,-0000037,-0000018,+0000058,-0000076,+0004168,-0000778,+0000470,-0002318,14:59:15.134060
0.290996,+0000021,-0000030,-0000013,+0000031,-0000093,+0004176,-0000770,+0000476,-0002317,14:59:15.134060
0.291329,+0000014,-0000027,-0000004,+0000062,-0000091,+0004145,-0000770,+0000476,-0002317,14:59:15.134060
0.291662,+0000014,-0000026,-0000016,+0000055,-0000075,+0004179,-0000770,+0000476,-0002317,14:59:15.134060
0.291995,+0000008,-0000014,+0000003,+0000056,-0000097,+0004137,-0000762,+0000452,-0002327,14:59:15.134060
0.292328,+0000013,-0000015,-0000003,+0000039,-0000099,+0004138,-0000762,+0000452,-0002327,14:59:15.134060
0.292661,+0000010,-0000032,-0000010,+0000060,-0000074,+0004150,-0000762,+0000452,-0002327,14:59:15.134060
0.292994,+0000032,-0000030,-0000010,+0000062,-0000093,+0004137,-0000764,+0000472,-0002338,14:59:15.134060
0.293327,+0000016,-0000027,-0000003,+0000053,-0000074,+0004152,-0000764,+0000472,-0002338,14:59:15.134060
0.293660,+0000024,-0000035,-0000021,+0000037,-0000079,+0004152,-0000764,+0000472,-0002338,14:59:15.134060
0.293993,+0000005,+0000004,-0000005,+0000038,-0000080,+0004159,-0000774,+0000480,-0002326,14:59:15.134060
0.294326,+0000019,-0000024,-0000005,+0000040,-0000091,+0004165,-0000774,+0000480,-0002326,14:59:15.134060
0.294659,+0000017,-0000032,-0000002,+0000050,-0000097,+0004153,-0000774,+0000480,-0002326,14:59:15.134060
0.294992,+0000024,-0000042,-0000008,+0000043,-0000078,+0004146,-0000776,+0000484,-0002331,14:59:15.134060
0.295325,+0000014,-0000018,-0000005,+0000049,-0000082,+0004140,-0000776,+0000484,-0002331,14:59:15.134060
0.295658,-0000003,+0000003,+0000000,+0000052,-0000063,+0004125,-0000776,+0000484,-0002331,14:59:15.137059
0.295991,+0000017,-0000012,-0000016,+0000058,-0000081,+0004142,-0000762,+0000464,-0002318,14:59:15.137059
0.296324,+0000016,-0000021,+0000003,+0000049,-0000076,+0004149,-0000762,+0000464,-0002318,14:59:15.137059
0.296657,+0000018,-0000023,-0000012,+0000038,-0000092,+0004164,-0000762,+0000464,-0002318,14:59:15.137059
0.296990,+0000016,-0000051,-0000016,+0000040,-0000078,+0004156,-0000762,+0000470,-0002338,14:59:15.137059
0.297323,+0000026,-0000023,-0000018,+0000051,-0000084,+0004141,-0000762,+0000470,-0002338,14:59:15.137059
0.297656,+0000003,-0000008,-0000008,+0000035,-0000085,+0004160,-0000762,+0000470,-0002338,14:59:15.137059
0.297989,+0000002,-0000017,+0000001,+0000044,-0000074,+0004138,-0000766,+0000480,-0002337,14:59:15.137059
0.298322,+0000010,-0000020,-0000019,+0000038,-0000088,+0004139,-0000766,+0000480,-0002337,14:59:15.137059
0.298655,+0000011,-0000030,+0000006,+0000047,-0000092,+0004175,-0000766,+0000480,-0002337,14:59:15.137059
0.299023,+0000022,-0000023,-0000015,+0000062,-0000102,+0004140,-0000770,+0000484,-0002330,14:59:15.137059
0.299321,+0000013,-0000029,-0000006,+0000042,-0000077,+0004147,-0000770,+0000484,-0002330,14:59:15.137059
0.299654,-0000001,-0000019,-0000011,+0000045,-0000092,+0004134,-0000770,+0000484,-0002330,14:59:15.137059
0.299987,+0000006,-0000023,+0000000,+0000057,-0000090,+0004155,-0000772,+0000474,-0002323,14:59:15.137059
0.300320,+0000013,-0000018,-0000014,+0000026,-0000093,+0004161,-0000772,+0000474,-0002323,14:59:15.137059
0.300653,+0000016,-0000035,-0000019,+0000039,-0000090,+0004158,-0000772,+0000474,-0002323,14:59:15.137059
0.300986,+0000013,-0000034,-0000015,+0000046,-0000105,+0004160,-0000784,+0000472,-0002341,14:59:15.137059
0.301319,+0000016,-0000018,-0000013,+0000046,-0000095,+0004157,-0000784,+0000472,-0002341,14:59:15.137059
0.301652,+0000022,-0000015,-0000006,+0000032,-0000078,+0004158,-0000784,+0000472,-0002341,14:59:15.137059
0.301985,+0000003,-0000011,-0000008,+0000040,-0000086,+0004142,-0000762,+0000482,-0002348,14:59:15.137059
0.302318,+0000016,-0000023,-0000008,+0000038,-0000110,+0004167,-0000762,+0000482,-0002348,14:59:15.137059
0.302651,+0000025,-0000034,-0000016,+0000044,-0000070,+0004141,-0000762,+0000482,-0002348,14:59:15.137059
0.302984,+0000022,-0000021,-0000014,+0000023,-0000071,+0004145,-0000770,+0000474,-0002315,14:59:15.137059
0.303317,+0000035,-0000024,-0000010,+0000034,-0000068,+0004145,-0000770,+0000474,-0002315,14:59:15.137059
0.303650,-0000016,-0000018,-0000007,+0000052,-0000084,+0004135,-0000770,+0000474,-0002315,14:59:15.138059
0.303986,+0000030,-0000014,+0000000,+0000042,-0000069,+0004147,-0000784,+0000476,-0002337,14:59:15.138059
0.304316,+0000016,-0000032,-0000008,+0000043,-0000052,+0004147,-0000784,+0000476,-0002337,14:59:15.138059
0.304649,+0000024,-0000029,-0000003,+0000055,-0000073,+0004137,-0000784,+0000476,-0002337,14:59:15.138059
0.305081,+0000019,-0000030,-0000019,+0000052,-0000057,+0004163,-0000788,+0000478,-0002342,14:59:15.138059
0.305320,+0000027,-0000019,-0000010,+0000052,-0000057,+0004163,-0000788,+0000478,-0002342,14:59:15.138059
0.305651,+0000000,-0000002,+0000002,+0000049,-0000084,+0004159,-0000788,+0000478,-0002342,14:59:15.138059
0.305986,+0000011,-0000011,-0000011,+0000040,-0000112,+0004151,-0000768,+0000474,-0002319,14:59:15.138059
0.306317,+0000003,-0000008,-0000008,+0000052,-0000084,+0004145,-0000768,+0000474,-0002319,14:59:15.138059
0.306647,+0000013,-0000019,-0000012,+0000052,-0000080,+0004143,-0000768,+0000474,-0002319,14:59:15.138059
0.306980,+0000033,-0000034,-0000013,+0000058,-0000100,+0004165,-0000772,+0000454,-0002328,14:59:15.138059
0.307313,-0000003,-0000019,-0000005,+0000036,-0000048,+0004165,-0000772,+0000454,-0002328,14:59:15.139563
0.307647,+0000003,+0000001,-0000003,+0000068,-0000060,+0004145,-0000772,+0000454,-0002328,14:59:15.142567
0.307980,+0000008,-0000022,-0000019,+0000036,-0000097,+0004178,-0000754,+0000482,-0002337,14:59:15.142567
0.308313,+0000028,-0000029,+0000003,+0000048,-0000086,+0004144,-0000754,+0000482,-0002337,14:59:15.143570
0.308645,+0000006,-0000035,-0000011,+0000046,-0000080,+0004140,-0000754,+0000482,-0002337,14:59:15.143570
0.308978,+0000018,-0000042,-0000015,+0000039,-0000083,+0004144,-0000768,+0000482,-0002333,14:59:15.143570
0.309312,-0000008,-0000003,+0000000,+0000048,-0000085,+0004164,-0000768,+0000482,-0002333,14:59:15.143570
0.309645,+0000003,-0000016,-0000010,+0000039,-0000094,+0004142,-0000768,+0000482,-0002333,14:59:15.143570
0.309977,+0000016,-0000029,-0000010,+0000038,-0000088,+0004163,-0000772,+0000482,-0002330,14:59:15.143570
0.310310,+0000016,-0000037,-0000013,+0000049,-0000093,+0004161,-0000772,+0000482,-0002330,14:59:15.143570
0.310643,+0000028,-0000035,-0000018,+0000065,-0000090,+0004142,-0000772,+0000482,-0002330,14:59:15.143570
0.310976,+0000022,-0000016,-0000013,+0000048,-0000092,+0004141,-0000760,+0000476,-0002343,14:59:15.143570
0.311309,+0000008,-0000016,-0000010,+0000056,-0000078,+0004146,-0000760,+0000476,-0002343,14:59:15.143570
0.311642,-0000001,-0000015,+0000001,+0000049,-0000077,+0004153,-0000760,+0000476,-0002343,14:59:15.143570
0.311975,+0000022,-0000015,-0000007,+0000053,-0000075,+0004166,-0000764,+0000456,-0002321,14:59:15.143570
0.312308,+0000013,-0000032,+0000001,+0000041,-0000095,+0004138,-0000764,+0000456,-0002321,14:59:15.143570
0.312641,+0000033,-0000024,-0000013,+0000049,-0000102,+0004146,-0000764,+0000456,-0002321,14:59:15.143570
0.312974,+0000015,-0000022,-0000010,+0000042,-0000084,+0004134,-0000768,+0000480,-0002332,14:59:15.143570
0.313307,+0000018,-0000005,-0000008,+0000064,-0000071,+0004148,-0000768,+0000480,-0002332,14:59:15.143570
0.313640,+0000000,-0000018,-0000002,+0000057,-0000071,+0004144,-0000768,+0000480,-0002332,14:59:15.143570
0.313973,-0000001,-0000020,-0000003,+0000047,-0000069,+0004143,-0000776,+0000472,-0002337,14:59:15.143570
0.314306,+0000024,-0000042,-0000007,+0000045,-0000058,+0004147,-0000776,+0000472,-0002337,14:59:15.143570
0.314639,+0000021,-0000022,-0000015,+0000048,-0000087,+0004143,-0000776,+0000472,-0002337,14:59:15.143570
0.314972,+0000003,-0000019,+0000003,+0000052,-0000084,+0004138,-0000772,+0000470,-0002313,14:59:15.143570
0.315305,+0000022,-0000010,-0000004,+0000047,-0000090,+0004135,-0000772,+0000470,-0002313,14:59:15.143570
0.315638,+0000008,-0000021,-0000006,+0000060,-0000075,+0004147,-0000772,+0000470,-0002313,14:59:15.143570
0.315971,+0000014,-0000021,-0000002,+0000046,-0000084,+0004132,-0000772,+0000468,-0002341,14:59:15.143570
0.316304,+0000033,-0000045,-0000024,+0000072,-0000081,+0004137,-0000772,+0000468,-0002341,14:59:15.143570
0.316637,+0000010,-0000018,-0000003,+0000029,-0000093,+0004144,-0000772,+0000468,-0002341,14:59:15.143570
0.316970,+0000008,-0000016,-0000007,+0000040,-0000082,+0004164,-0000756,+0000478,-0002337,14:59:15.143570
0.317303,+0000024,-0000027,-0000021,+0000049,-0000078,+0004138,-0000756,+0000478,-0002337,14:59:15.143570
0.317636,-0000006,-0000005,+0000006,+0000046,-0000091,+0004151,-0000756,+0000478,-0002337,14:59:15.143570
0.317969,+0000024,-0000028,-0000018,+0000044,-0000092,+0004143,-0000768,+0000458,-0002332,14:59:15.143570
0.318302,+0000003,-0000024,-0000002,+0000051,-0000084,+0004141,-0000768,+0000458,-0002332,14:59:15.143570
0.318635,+0000006,-0000021,-0000011,+0000049,-0000088,+0004156,-0000768,+0000458,-0002332,14:59:15.143570
0.318968,+0000024,-0000028,-0000010,+0000044,-0000089,+0004152,-0000778,+0000448,-0002330,14:59:15.143570
0.319301,-0000004,-0000005,-0000010,+0000044,-0000077,+0004147,-0000778,+0000448,-0002330,14:59:15.143570
0.319634,+0000005,-0000004,-0000010,+0000053,-0000101,+0004147,-0000778,+0000448,-0002330,14:59:15.143570
0.319967,+0000022,-0000039,-0000008,+0000046,-0000106,+0004127,-0000764,+0000470,-0002331,14:59:15.143570
0.320302,+0000021,-0000024,-0000015,+0000019,-0000084,+0004148,-0000764,+0000470,-0002331,14:59:15.173568
0.320633,+0000017,-0000029,+0000000,+0000042,-0000111,+0004165,-0000764,+0000470,-0002331,14:59:15.173568
0.320971,+0000022,-0000027,-0000008,+0000045,-0000085,+0004136,-0000766,+0000468,-0002329,14:59:15.173568
0.321507,+0000008,-0000029,-0000013,+0000045,-0000098,+0004152,-0000766,+0000468,-0002329,14:59:15.173568
0.321714,+0000022,-0000029,-0000013,+0000045,-0000098,+0004152,-0000766,+0000468,-0002329,14:59:15.173568
0.322074,+0000007,-0000016,-0000010,+0000042,-0000077,+0004160,-0000778,+0000484,-0002309,14:59:15.173568
0.322897,+0000014,-0000029,-0000006,+0000039,-0000077,+0004150,-0000778,+0000484,-0002309,14:59:15.173568
0.323093,+0000006,-0000007,-0000006,+0000039,-0000077,+0004150,-0000778,+0000484,-0002309,14:59:15.173568
0.323298,+0000007,-0000020,-0000007,+0000049,-0000087,+0004145,-0000768,+0000474,-0002344,14:59:15.173568
0.323632,+0000024,-0000040,-0000012,+0000043,-0000076,+0004150,-0000768,+0000474,-0002344,14:59:15.173568
0.323967,+0000008,-0000012,+0000004,+0000053,-0000075,+0004155,-0000768,+0000474,-0002344,14:59:15.173568
0.324301,+0000028,-0000055,-0000016,+0000044,-0000090,+0004167,-0000786,+0000476,-0002344,14:59:15.173568
0.324629,+0000016,-0000005,-0000003,+0000048,-0000079,+0004161,-0000786,+0000476,-0002344,14:59:15.173568
0.324965,-0000001,-0000001,+0000000,+0000054,-0000089,+0004146,-0000786,+0000476,-0002344,14:59:15.173568
0.325295,+0000004,-0000013,-0000007,+0000046,-0000095,+0004132,-0000784,+0000470,-0002344,14:59:15.173568
0.325629,+0000008,-0000030,+0000000,+0000052,-0000072,+0004145,-0000784,+0000470,-0002344,14:59:15.173568
0.325962,+0000016,-0000029,-0000019,+0000046,-0000085,+0004147,-0000784,+0000470,-0002344,14:59:15.173568
0.326294,+0000027,-0000028,-0000019,+0000026,-0000088,+0004149,-0000774,+0000464,-0002345,14:59:15.173568
0.326627,-0000004,-0000020,-0000002,+0000044,-0000091,+0004155,-0000774,+0000464,-0002345,14:59:15.173568
0.326960,+0000006,-0000018,-0000013,+0000041,-0000100,+0004164,-0000774,+0000464,-0002345,14:59:15.173568
0.327293,+0000006,-0000018,-0000006,+0000034,-0000092,+0004155,-0000764,+0000466,-0002344,14:59:15.173568
0.327627,+0000010,-0000010,-0000002,+0000058,-0000095,+0004163,-0000764,+0000466,-0002344,14:59:15.173568
0.327962,+0000027,-0000022,-0000013,+0000051,-0000115,+0004148,-0000764,+0000466,-0002344,14:59:15.173568
0.328292,+0000014,-0000016,-0000005,+0000050,-0000086,+0004153,-0000782,+0000482,-0002338,14:59:15.173568
0.328625,-0000003,-0000019,-0000018,+0000045,-0000087,+0004137,-0000782,+0000482,-0002338,14:59:15.173568
0.328958,+0000005,-0000020,-0000004,+0000041,-0000078,+0004143,-0000782,+0000482,-0002338,14:59:15.173568
0.329291,+0000002,-0000010,+0000003,+0000056,-0000088,+0004146,-0000774,+0000476,-0002340,14:59:15.173568
0.329624,+0000019,-0000019,+0000001,+0000064,-0000086,+0004169,-0000774,+0000476,-0002340,14:59:15.173568
0.329957,+0000022,-0000040,-0000008,+0000051,-0000080,+0004134,-0000774,+0000476,-0002340,14:59:15.173568
0.330290,+0000024,-0000040,-0000006,+0000060,-0000081,+0004136,-0000764,+0000476,-0002344,14:59:15.173568
0.330623,+0000008,-0000026,-0000007,+0000040,-0000086,+0004138,-0000764,+0000476,-0002344,14:59:15.173568
0.330956,+0000006,-0000012,-0000010,+0000027,-0000097,+0004155,-0000764,+0000476,-0002344,14:59:15.173568
0.331289,+0000000,-0000024,-0000011,+0000052,-0000099,+0004150,-0000788,+0000470,-0002354,14:59:15.173568
0.331622,+0000030,-0000021,-0000016,+0000051,-0000086,+0004145,-0000788,+0000470,-0002354,14:59:15.173568
0.331955,-0000003,-0000039,+0000001,+0000046,-0000077,+0004139,-0000788,+0000470,-0002354,14:59:15.173568
0.332288,+0000032,-0000021,+0000000,+0000041,-0000074,+0004134,-0000774,+0000480,-0002333,14:59:15.173568
0.332621,+0000011,-0000037,-0000010,+0000060,-0000098,+0004130,-0000774,+0000480,-0002333,14:59:15.173568
0.332954,+0000005,-0000010,-0000008,+0000053,-0000078,+0004144,-0000774,+0000480,-0002333,14:59:15.173568
0.333288,+0000013,-0000015,+0000000,+0000055,-0000125,+0004165,-0000776,+0000470,-0002330,14:59:15.173568
0.333620,+0000013,-0000021,-0000007,+0000063,-0000074,+0004150,-0000776,+0000470,-0002330,14:59:15.173568
0.333953,+0000019,-0000032,-0000008,+0000048,-0000066,+0004144,-0000776,+0000470,-0002330,14:59:15.173568
0.334286,+0000024,-0000027,-0000015,+0000041,-0000067,+0004145,-0000770,+0000472,-0002339,14:59:15.173568
0.334619,+0000011,-0000034,-0000010,+0000059,-0000103,+0004140,-0000770,+0000472,-0002339,14:59:15.173568
0.334952,+0000005,-0000002,-0000011,+0000047,-0000073,+0004149,-0000770,+0000472,-0002339,14:59:15.173568
0.335285,+0000013,-0000015,-0000005,+0000052,-0000110,+0004161,-0000780,+0000472,-0002361,14:59:15.173568
0.335618,-0000001,-0000030,+0000001,+0000049,-0000075,+0004158,-0000780,+0000472,-0002361,14:59:15.173568
0.335951,+0000030,-0000040,-0000024,+0000031,-0000075,+0004149,-0000780,+0000472,-0002361,14:59:15.173568
0.336284,+0000006,-0000037,-0000004,+0000046,-0000096,+0004156,-0000780,+0000476,-0002349,14:59:15.173568
0.336617,+0000000,+0000012,+0000007,+0000054,-0000095,+0004154,-0000780,+0000476,-0002349,14:59:15.173568
0.336950,+0000011,-0000021,-0000021,+0000027,-0000076,+0004158,-0000780,+0000476,-0002349,14:59:15.174644
0.337283,+0000009,-0000005,-0000004,+0000035,-0000098,+0004166,-0000768,+0000470,-0002333,14:59:15.174644
0.337616,+0000024,-0000040,+0000000,+0000032,-0000097,+0004152,-0000768,+0000470,-0002333,14:59:15.174644
0.337949,+0000014,-0000038,-0000007,+0000052,-0000081,+0004162,-0000768,+0000470,-0002333,14:59:15.174644
0.338282,+0000038,-0000021,-0000007,+0000056,-0000069,+0004163,-0000792,+0000460,-0002328,14:59:15.174644
0.338615,-0000004,-0000011,-0000006,+0000067,-0000088,+0004159,-0000792,+0000460,-0002328,14:59:15.174644
0.338948,+0000013,-0000024,-0000002,+0000050,-0000083,+0004180,-0000792,+0000460,-0002328,14:59:15.174644
0.339281,+0000002,-0000011,-0000005,+0000060,-0000092,+0004157,-0000798,+0000478,-0002345,14:59:15.174644
0.339614,+0000030,-0000044,-0000008,+0000026,-0000091,+0004153,-0000798,+0000478,-0002345,14:59:15.174644
0.339947,+0000025,-0000016,-0000007,+0000025,-0000104,+0004153,-0000798,+0000478,-0002345,14:59:15.174644
0.340280,-0000003,-0000019,-0000004,+0000064,-0000091,+0004154,-0000776,+0000478,-0002329,14:59:15.174644
0.340613,+0000016,-0000015,-0000012,+0000062,-0000073,+0004175,-0000776,+0000478,-0002329,14:59:15.174644
0.340946,+0000006,-0000021,-0000014,+0000059,-0000095,+0004168,-0000776,+0000478,-0002329,14:59:15.174644
0.341279,-0000008,-0000015,+0000007,+0000041,-0000072,+0004173,-0000774,+0000470,-0002324,14:59:15.174644
0.341612,+0000029,-0000044,-0000010,+0000059,-0000080,+0004162,-0000774,+0000470,-0002324,14:59:15.177121
0.341945,+0000006,-0000021,-0000005,+0000051,-0000097,+0004145,-0000774,+0000470,-0002324,14:59:15.177121
0.342278,+0000013,-0000028,-0000010,+0000044,-0000087,+0004158,-0000764,+0000486,-0002324,14:59:15.177121
0.342611,+0000022,-0000010,-0000015,+0000044,-0000091,+0004142,-0000764,+0000486,-0002324,14:59:15.177121
0.342944,+0000000,-0000013,-0000003,+0000049,-0000068,+0004170,-0000764,+0000486,-0002324,14:59:15.177121
0.343277,+0000021,-0000032,-0000013,+0000056,-0000082,+0004146,-0000780,+0000488,-0002339,14:59:15.177121
0.343610,+0000020,-0000040,-0000005,+0000058,-0000088,+0004155,-0000780,+0000488,-0002339,14:59:15.177121
0.343943,+0000014,-0000026,-0000010,+0000035,-0000102,+0004158,-0000780,+0000488,-0002339,14:59:15.177121
0.344276,+0000014,-0000029,-0000027,+0000046,-0000075,+0004150,-0000792,+0000466,-0002340,14:59:15.177121
0.344609,+0000009,+0000003,-0000002,+0000050,-0000079,+0004156,-0000792,+0000466,-0002340,14:59:15.177121
0.344942,+0000005,-0000002,-0000007,+0000056,-0000098,+0004147,-0000792,+0000466,-0002340,14:59:15.177121
0.345275,+0000007,-0000007,-0000008,+0000048,-0000097,+0004150,-0000770,+0000490,-0002316,14:59:15.177121
0.345608,+0000024,-0000028,-0000010,+0000050,-0000077,+0004130,-0000770,+0000490,-0002316,14:59:15.177121
0.345941,+0000018,-0000029,-0000014,+0000053,-0000103,+0004145,-0000770,+0000490,-0002316,14:59:15.177121
0.346274,+0000011,-0000015,-0000007,+0000021,-0000091,+0004135,-0000764,+0000484,-0002336,14:59:15.177121
0.346607,+0000006,-0000010,-0000007,+0000040,-0000094,+0004152,-0000764,+0000484,-0002336,14:59:15.177121
0.346940,+0000002,-0000002,+0000012,+0000048,-0000095,+0004147,-0000764,+0000484,-0002336,14:59:15.177121
0.347273,+0000013,-0000032,-0000007,+0000047,-0000069,+0004140,-0000784,+0000472,-0002330,14:59:15.177121
0.347606,+0000020,-0000026,-0000005,+0000055,-0000088,+0004148,-0000784,+0000472,-0002330,14:59:15.177121
0.347939,+0000025,-0000047,-0000022,+0000031,-0000087,+0004156,-0000784,+0000472,-0002330,14:59:15.177121
0.348272,+0000011,-0000020,-0000005,+0000053,-0000084,+0004148,-0000752,+0000490,-0002329,14:59:15.177121
0.348605,+0000008,-0000015,-0000010,+0000048,-0000116,+0004167,-0000752,+0000490,-0002329,14:59:15.177121
0.348938,+0000014,-0000015,-0000008,+0000058,-0000107,+0004154,-0000752,+0000490,-0002329,14:59:15.177121
0.349271,+0000008,-0000029,-0000004,+0000045,-0000096,+0004163,-0000780,+0000482,-0002357,14:59:15.177121
0.349604,+0000036,-0000027,-0000010,+0000064,-0000084,+0004162,-0000780,+0000482,-0002357,14:59:15.177121
0.349937,+0000016,-0000032,+0000000,+0000052,-0000096,+0004160,-0000780,+0000482,-0002357,14:59:15.177121
0.350270,+0000005,+0000001,-0000005,+0000044,-0000089,+0004149,-0000774,+0000494,-0002322,14:59:15.177121
0.350603,-0000002,-0000020,+0000000,+0000059,-0000072,+0004178,-0000774,+0000494,-0002322,14:59:15.177121
0.350936,+0000020,-0000024,-0000013,+0000043,-0000096,+0004162,-0000774,+0000494,-0002322,14:59:15.177121
0.351269,+0000007,-0000036,-0000011,+0000053,-0000079,+0004170,-0000786,+0000470,-0002325,14:59:15.177121
0.351602,+0000021,-0000043,-0000003,+0000043,-0000075,+0004172,-0000786,+0000470,-0002325,14:59:15.177121
0.351935,+0000009,-0000028,-0000008,+0000063,-0000080,+0004149,-0000786,+0000470,-0002325,14:59:15.177121
0.352268,-0000017,-0000002,-0000002,+0000034,-0000086,+0004159,-0000774,+0000476,-0002310,14:59:15.177121
0.352601,+0000010,-0000023,-0000005,+0000046,-0000089,+0004157,-0000774,+0000476,-0002310,14:59:15.177121
0.352934,+0000005,-0000019,-0000013,+0000049,-0000089,+0004170,-0000774,+0000476,-0002310,14:59:15.177121
0.353267,+0000025,-0000034,-0000002,+0000044,-0000090,+0004151,-0000776,+0000464,-0002319,14:59:15.177121
0.353600,+0000014,-0000018,-0000005,+0000015,-0000092,+0004140,-0000776,+0000464,-0002319,14:59:15.177121
0.353933,-0000010,-0000013,-0000002,+0000050,-0000085,+0004160,-0000776,+0000464,-0002319,14:59:15.177121
0.354266,+0000019,-0000016,-0000010,+0000063,-0000093,+0004165,-0000782,+0000476,-0002326,14:59:15.177121
0.354599,-0000004,-0000005,-0000005,+0000055,-0000079,+0004154,-0000782,+0000476,-0002326,14:59:15.177121
0.354932,+0000013,-0000018,+0000000,+0000039,-0000087,+0004161,-0000782,+0000476,-0002326,14:59:15.177121
0.355265,+0000027,-0000037,-0000010,+0000066,-0000088,+0004160,-0000784,+0000474,-0002332,14:59:15.177121
0.355598,+0000016,-0000026,-0000008,+0000063,-0000089,+0004156,-0000784,+0000474,-0002332,14:59:15.177121
0.355931,+0000010,-0000019,-0000013,+0000060,-0000066,+0004148,-0000784,+0000474,-0002332,14:59:15.177121
0.356264,+0000010,-0000015,-0000011,+0000058,-0000098,+0004122,-0000778,+0000476,-0002344,14:59:15.177121
0.356597,+0000004,-0000007,+0000003,+0000062,-0000077,+0004159,-0000778,+0000476,-0002344,14:59:15.177121
0.356930,+0000016,-0000024,-0000014,+0000045,-0000069,+0004153,-0000778,+0000476,-0002344,14:59:15.177121
0.357263,+0000022,-0000037,-0000004,+0000041,-0000075,+0004136,-0000798,+0000482,-0002343,14:59:15.208204
0.357596,+0000019,-0000024,-0000010,+0000058,-0000080,+0004138,-0000798,+0000482,-0002343,14:59:15.208204
0.357929,+0000008,-0000031,-0000021,+0000053,-0000081,+0004159,-0000798,+0000482,-0002343,14:59:15.208204
0.358262,+0000006,-0000011,-0000005,+0000051,-0000079,+0004144,-0000780,+0000482,-0002311,14:59:15.210894
0.358595,+0000004,-0000013,-0000005,+0000049,-0000068,+0004160,-0000780,+0000482,-0002311,14:59:15.210894
0.358928,+0000017,-0000028,-0000016,+0000040,-0000093,+0004154,-0000780,+0000482,-0002311,14:59:15.210894
0.359261,+0000019,-0000036,-0000002,+0000064,-0000086,+0004161,-0000772,+0000482,-0002336,14:59:15.210894
0.359594,+0000014,-0000018,-0000019,+0000050,-0000083,+0004164,-0000772,+0000482,-0002336,14:59:15.212886
0.359927,+0000016,-0000019,-0000003,+0000041,-0000083,+0004161,-0000772,+0000482,-0002336,14:59:15.212886
0.360260,+0000005,-0000011,-0000018,+0000053,-0000085,+0004149,-0000770,+0000482,-0002328,14:59:15.212886
0.360593,+0000021,-0000023,-0000016,+0000054,-0000072,+0004156,-0000770,+0000482,-0002328,14:59:15.212886
0.360926,+0000007,-0000021,-0000007,+0000043,-0000087,+0004141,-0000770,+0000482,-0002328,14:59:15.212886
0.361259,+0000033,-0000040,-0000003,+0000058,-0000080,+0004147,-0000762,+0000468,-0002348,14:59:15.212886
0.361592,-0000001,-0000035,-0000022,+0000050,-0000097,+0004151,-0000762,+0000468,-0002348,14:59:15.212886
0.361925,+0000020,-0000024,-0000006,+0000046,-0000089,+0004131,-0000762,+0000468,-0002348,14:59:15.212886
0.362258,-0000001,-0000016,+0000003,+0000053,-0000101,+0004131,-0000778,+0000472,-0002329,14:59:15.212886
0.362591,+0000005,-0000029,-0000013,+0000051,-0000063,+0004140,-0000778,+0000472,-0002329,14:59:15.212886
0.362924,+0000025,-0000034,-0000014,+0000040,-0000087,+0004142,-0000778,+0000472,-0002329,14:59:15.212886
0.363257,+0000016,-0000026,+0000001,+0000033,-0000087,+0004140,-0000766,+0000480,-0002326,14:59:15.212886
0.363590,+0000025,-0000039,-0000027,+0000049,-0000081,+0004139,-0000766,+0000480,-0002326,14:59:15.212886
0.363923,+0000000,+0000005,+0000001,+0000055,-0000085,+0004149,-0000766,+0000480,-0002326,14:59:15.212886
0.364256,+0000017,-0000023,-0000022,+0000035,-0000093,+0004135,-0000768,+0000468,-0002316,14:59:15.212886
0.364589,+0000008,-0000024,+0000004,+0000030,-0000095,+0004127,-0000768,+0000468,-0002316,14:59:15.212886
0.364922,+0000031,-0000037,-0000015,+0000053,-0000082,+0004146,-0000768,+0000468,-0002316,14:59:15.212886
0.365255,+0000011,-0000032,-0000002,+0000047,-0000098,+0004160,-0000780,+0000482,-0002328,14:59:15.212886
0.365588,+0000027,-0000010,-0000005,+0000052,-0000104,+0004140,-0000780,+0000482,-0002328,14:59:15.212886
0.365921,+0000003,-0000013,-0000010,+0000046,-0000101,+0004138,-0000780,+0000482,-0002328,14:59:15.212886
0.366254,+0000003,-0000018,-0000004,+0000049,-0000082,+0004151,-0000768,+0000468,-0002335,14:59:15.212886
0.366587,+0000025,-0000020,-0000008,+0000059,-0000072,+0004144,-0000768,+0000468,-0002335,14:59:15.212886
0.366920,+0000006,-0000037,-0000010,+0000048,-0000094,+0004149,-0000768,+0000468,-0002335,14:59:15.212886
0.367253,+0000030,-0000027,-0000013,+0000053,-0000098,+0004154,-0000764,+0000482,-0002337,14:59:15.212886
0.367586,+0000013,-0000015,-0000002,+0000042,-0000078,+0004157,-0000764,+0000482,-0002337,14:59:15.212886
0.367919,+0000008,-0000018,-0000010,+0000064,-0000092,+0004163,-0000764,+0000482,-0002337,14:59:15.212886
0.368252,+0000013,-0000021,-0000007,+0000067,-0000071,+0004159,-0000770,+0000492,-0002338,14:59:15.212886
0.368585,+0000014,-0000020,+0000003,+0000041,-0000084,+0004161,-0000770,+0000492,-0002338,14:59:15.212886
0.368918,+0000018,-0000042,-0000013,+0000035,-0000105,+0004177,-0000770,+0000492,-0002338,14:59:15.212886
0.369251,+0000024,-0000031,-0000013,+0000051,-0000081,+0004158,-0000776,+0000472,-0002325,14:59:15.212886
0.369584,+0000008,-0000019,-0000008,+0000044,-0000069,+0004158,-0000776,+0000472,-0002325,14:59:15.212886
0.369917,+0000005,-0000013,-0000016,+0000046,-0000097,+0004160,-0000776,+0000472,-0002325,14:59:15.213888
0.370250,+0000011,-0000011,-0000008,+0000048,-0000086,+0004146,-0000798,+0000458,-0002321,14:59:15.221887
0.370583,+0000017,-0000022,-0000007,+0000036,-0000082,+0004142,-0000798,+0000458,-0002321,14:59:15.221887
0.370917,+0000024,-0000048,-0000010,+0000065,-0000085,+0004151,-0000798,+0000458,-0002321,14:59:15.221887
0.371599,+0000020,-0000024,+0000002,+0000041,-0000075,+0004156,-0000758,+0000490,-0002306,14:59:15.221887
0.372218,+0000016,-0000019,-0000005,+0000064,-0000102,+0004162,-0000758,+0000490,-0002306,14:59:15.221887
0.372404,+0000007,-0000043,-0000010,+0000064,-0000102,+0004162,-0000758,+0000490,-0002306,14:59:15.221887
0.372849,-0000008,-0000029,-0000005,+0000042,-0000086,+0004153,-0000772,+0000468,-0002325,14:59:15.221887
0.373116,+0000016,-0000020,-0000005,+0000050,-0000085,+0004153,-0000772,+0000468,-0002325,14:59:15.221887
0.373257,+0000016,-0000020,-0000005,+0000050,-0000085,+0004153,-0000772,+0000468,-0002325,14:59:15.221887
0.373582,-0000008,-0000015,-0000005,+0000057,-0000085,+0004147,-0000770,+0000484,-0002324,14:59:15.221887
0.373914,+0000029,-0000018,-0000004,+0000052,-0000087,+0004150,-0000770,+0000484,-0002324,14:59:15.221887
0.374248,+0000024,-0000026,+0000009,+0000026,-0000072,+0004145,-0000770,+0000484,-0002324,14:59:15.221887
0.374579,+0000005,-0000029,-0000016,+0000039,-0000070,+0004147,-0000764,+0000474,-0002339,14:59:15.221887
0.374912,+0000033,-0000032,-0000008,+0000046,-0000077,+0004162,-0000764,+0000474,-0002339,14:59:15.221887
0.375245,+0000011,-0000029,-0000007,+0000035,-0000089,+0004133,-0000764,+0000474,-0002339,14:59:15.221887
0.375578,+0000015,-0000022,-0000005,+0000048,-0000063,+0004153,-0000764,+0000474,-0002336,14:59:15.221887
0.375911,+0000003,+0000001,-0000005,+0000045,-0000085,+0004174,-0000764,+0000474,-0002336,14:59:15.221887
0.376244,+0000002,-0000021,-0000006,+0000049,-0000075,+0004133,-0000764,+0000474,-0002336,14:59:15.221887
0.376578,+0000014,-0000027,-0000011,+0000051,-0000085,+0004140,-0000778,+0000482,-0002335,14:59:15.221887
0.376910,+0000017,-0000042,+0000001,+0000043,-0000085,+0004138,-0000778,+0000482,-0002335,14:59:15.221887
0.377243,+0000019,-0000028,-0000019,+0000060,-0000073,+0004151,-0000778,+0000482,-0002335,14:59:15.221887
0.377576,+0000000,+0000009,+0000001,+0000041,-0000090,+0004157,-0000764,+0000474,-0002328,14:59:15.221887
