===BEGIN_METADATA===
"This CSV contains gyroscope, accelerometer, and magnetometer data synced with the test named below."
Test Name: 2026-07-07_150010_01,yyyy-mm-dd_hhmmss_{probe#/nano_id}
Calibrations: (not implemented yet)
===END_METADATA===
===BEGIN_DATA===
Time (sec),Gyro X,Gyro Y,Gyro Z,Accel X,Accel Y,Accel Z,Mag X,Mag Y,Mag Z,Processed_Time
0.000282,-0000002,-0000004,+0000003,+0000020,-0000087,+0004134,-0000630,+0000298,-0002539,15:00:11.892772
0.000615,+0000003,-0000019,-0000014,+0000026,-0000084,+0004150,-0000630,+0000298,-0002539,15:00:11.892772
0.000947,+0000005,-0000010,-0000001,+0000026,-0000085,+0004142,-0000768,+0000474,-0002313,15:00:11.892772
0.001280,+0000033,-0000036,-0000012,+0000024,-0000084,+0004173,-0000768,+0000474,-0002313,15:00:11.892772
0.001613,+0000014,-0000037,-0000019,+0000007,-0000066,+0004175,-0000768,+0000474,-0002313,15:00:11.892772
0.001946,+0000010,-0000031,-0000005,+0000030,-0000086,+0004150,-0000778,+0000476,-0002307,15:00:11.892772
0.002279,+0000011,-0000021,-0000008,+0000020,-0000086,+0004156,-0000778,+0000476,-0002307,15:00:11.892772
0.002612,+0000013,-0000016,-0000005,+0000021,-0000082,+0004166,-0000778,+0000476,-0002307,15:00:11.892772
0.002945,+0000010,-0000026,-0000013,+0000022,-0000071,+0004174,-0000774,+0000478,-0002305,15:00:11.892772
0.003278,+0000025,-0000032,-0000011,+0000023,-0000077,+0004165,-0000774,+0000478,-0002305,15:00:11.892772
0.003611,+0000022,-0000031,-0000010,+0000031,-0000082,+0004164,-0000774,+0000478,-0002305,15:00:11.892772
0.003944,+0000002,-0000020,-0000002,+0000030,-0000081,+0004180,-0000778,+0000462,-0002332,15:00:11.892772
0.004277,+0000019,-0000026,-0000016,+0000026,-0000085,+0004146,-0000778,+0000462,-0002332,15:00:11.892772
0.004610,+0000002,-0000010,-0000003,+0000016,-0000061,+0004136,-0000778,+0000462,-0002332,15:00:11.892772
0.004943,+0000000,-0000024,-0000008,+0000022,-0000079,+0004144,-0000782,+0000480,-0002326,15:00:11.892772
0.005276,+0000022,-0000028,-0000001,+0000018,-0000065,+0004150,-0000782,+0000480,-0002326,15:00:11.892772
0.005609,+0000025,-0000047,-0000023,+0000029,-0000068,+0004156,-0000782,+0000480,-0002326,15:00:11.892772
0.005942,+0000011,-0000023,-0000013,+0000006,-0000078,+0004178,-0000770,+0000464,-0002334,15:00:11.892772
0.006275,-0000011,+0000011,+0000001,+0000010,-0000056,+0004162,-0000770,+0000464,-0002334,15:00:11.892772
0.006608,+0000016,-0000018,-0000012,+0000022,-0000081,+0004153,-0000770,+0000464,-0002334,15:00:11.892772
0.006941,+0000014,-0000032,-0000002,+0000032,-0000078,+0004158,-0000750,+0000480,-0002338,15:00:11.892772
0.007274,+0000027,-0000040,-0000024,+0000031,-0000074,+0004151,-0000750,+0000480,-0002338,15:00:11.892772
0.007607,+0000010,-0000026,-0000002,+0000039,-0000097,+0004149,-0000750,+0000480,-0002338,15:00:11.892772
0.007940,+0000004,-0000009,+0000000,+0000023,-0000075,+0004159,-0000766,+0000466,-0002329,15:00:11.892772
0.008273,+0000011,+0000000,-0000002,+0000020,-0000088,+0004175,-0000766,+0000466,-0002329,15:00:11.892772
0.008606,+0000022,-0000031,-0000019,+0000035,-0000091,+0004174,-0000766,+0000466,-0002329,15:00:11.892772
0.008939,+0000003,-0000023,-0000002,+0000015,-0000077,+0004164,-0000770,+0000490,-0002302,15:00:11.892772
0.009274,+0000024,-0000034,-0000008,+0000030,-0000087,+0004168,-0000770,+0000490,-0002302,15:00:11.933687
0.009606,+0000021,-0000024,-0000011,+0000042,-0000120,+0004139,-0000770,+0000490,-0002302,15:00:11.933687
0.009941,+0000009,-0000005,+0000000,+0000024,-0000079,+0004140,-0000770,+0000480,-0002344,15:00:11.933687
0.010514,+0000025,-0000045,-0000008,+0000025,-0000094,+0004148,-0000770,+0000480,-0002344,15:00:11.933687
0.010721,+0000025,-0000010,-0000002,+0000028,-0000072,+0004121,-0000770,+0000480,-0002344,15:00:11.933687
0.010983,+0000004,-0000010,-0000007,+0000033,-0000087,+0004149,-0000772,+0000466,-0002318,15:00:11.933687
0.011270,+0000016,-0000021,+0000000,+0000028,-0000087,+0004137,-0000772,+0000466,-0002318,15:00:11.933687
0.011605,+0000014,-0000039,-0000019,+0000023,-0000079,+0004144,-0000772,+0000466,-0002318,15:00:11.933687
0.011938,+0000019,-0000015,-0000005,+0000032,-0000096,+0004137,-0000770,+0000484,-0002315,15:00:11.933687
0.012270,+0000016,-0000023,+0000000,+0000016,-0000068,+0004126,-0000770,+0000484,-0002315,15:00:11.933687
0.012602,+0000008,-0000016,-0000011,+0000011,-0000067,+0004125,-0000770,+0000484,-0002315,15:00:11.933687
0.012935,+0000009,-0000024,-0000013,+0000026,-0000094,+0004140,-0000778,+0000460,-0002335,15:00:11.933687
0.013268,+0000013,-0000031,-0000008,+0000029,-0000073,+0004133,-0000778,+0000460,-0002335,15:00:11.933687
0.013601,+0000014,-0000039,-0000021,+0000034,-0000075,+0004152,-0000778,+0000460,-0002335,15:00:11.933687
0.013936,+0000014,-0000010,-0000004,+0000014,-0000067,+0004142,-0000782,+0000464,-0002335,15:00:11.933687
0.014267,-0000006,-0000010,-0000007,+0000029,-0000092,+0004137,-0000782,+0000464,-0002335,15:00:11.933687
0.014601,+0000021,-0000020,-0000002,+0000023,-0000080,+0004141,-0000782,+0000464,-0002335,15:00:11.933687
0.014933,+0000024,-0000026,-0000004,+0000025,-0000081,+0004154,-0000782,+0000482,-0002346,15:00:11.933687
0.015266,+0000005,-0000025,-0000008,+0000024,-0000090,+0004140,-0000782,+0000482,-0002346,15:00:11.933687
0.015599,+0000022,-0000028,-0000015,+0000011,-0000088,+0004145,-0000782,+0000482,-0002346,15:00:11.933687
0.015932,+0000008,-0000018,-0000006,+0000005,-0000091,+0004150,-0000762,+0000474,-0002335,15:00:11.933687
0.016265,+0000000,-0000011,-0000003,+0000037,-0000091,+0004158,-0000762,+0000474,-0002335,15:00:11.933687
0.016598,+0000014,-0000017,-0000002,+0000032,-0000081,+0004150,-0000762,+0000474,-0002335,15:00:11.933687
0.016931,+0000025,-0000024,-0000021,+0000024,-0000083,+0004168,-0000770,+0000462,-0002325,15:00:11.933687
0.017264,+0000003,-0000031,+0000001,+0000009,-0000085,+0004174,-0000770,+0000462,-0002325,15:00:11.933687
0.017597,+0000013,-0000026,-0000019,+0000026,-0000065,+0004158,-0000770,+0000462,-0002325,15:00:11.933687
0.017930,+0000016,-0000008,+0000000,+0000021,-0000053,+0004179,-0000774,+0000476,-0002318,15:00:11.933687
0.018263,+0000008,-0000007,-0000005,+0000020,-0000092,+0004206,-0000774,+0000476,-0002318,15:00:11.933687
0.018596,-0000006,-0000037,-0000005,+0000018,-0000106,+0004192,-0000774,+0000476,-0002318,15:00:11.933687
0.018929,+0000027,-0000040,-0000012,+0000033,-0000096,+0004183,-0000774,+0000480,-0002326,15:00:11.933687
0.019262,+0000020,-0000028,-0000011,+0000021,-0000097,+0004182,-0000774,+0000480,-0002326,15:00:11.933687
0.019595,+0000014,-0000026,-0000022,+0000036,-0000076,+0004186,-0000774,+0000480,-0002326,15:00:11.933687
0.019928,+0000006,-0000016,-0000013,+0000027,-0000079,+0004183,-0000770,+0000478,-0002328,15:00:11.933687
0.020261,+0000005,+0000006,+0000008,+0000020,-0000079,+0004178,-0000770,+0000478,-0002328,15:00:11.933687
0.020594,+0000021,-0000032,-0000010,+0000031,-0000062,+0004187,-0000770,+0000478,-0002328,15:00:11.933687
0.020927,+0000013,-0000037,+0000003,+0000024,-0000059,+0004172,-0000766,+0000478,-0002342,15:00:11.933687
0.021260,+0000013,-0000035,-0000018,+0000026,-0000083,+0004166,-0000766,+0000478,-0002342,15:00:11.933687
0.021593,+0000013,-0000029,-0000007,+0000040,-0000074,+0004174,-0000766,+0000478,-0002342,15:00:11.933687
0.021926,+0000002,-0000002,-0000008,+0000024,-0000066,+0004175,-0000768,+0000476,-0002322,15:00:11.933687
0.022259,+0000014,-0000020,-0000016,+0000035,-0000064,+0004165,-0000768,+0000476,-0002322,15:00:11.933687
0.022592,+0000013,-0000031,-0000008,+0000036,-0000099,+0004164,-0000768,+0000476,-0002322,15:00:11.933687
0.022925,+0000022,-0000027,-0000005,+0000018,-0000072,+0004149,-0000786,+0000484,-0002365,15:00:11.933687
0.023258,+0000026,-0000008,-0000011,+0000040,-0000082,+0004164,-0000786,+0000484,-0002365,15:00:11.933687
0.023591,+0000008,-0000016,-0000002,+0000037,-0000077,+0004139,-0000786,+0000484,-0002365,15:00:11.933687
0.023924,+0000013,-0000005,-0000004,+0000024,-0000082,+0004149,-0000788,+0000466,-0002321,15:00:11.933687
0.024257,+0000005,-0000027,-0000010,+0000020,-0000076,+0004157,-0000788,+0000466,-0002321,15:00:11.933687
0.024590,+0000025,-0000025,-0000018,+0000012,-0000077,+0004136,-0000788,+0000466,-0002321,15:00:11.933687
0.024923,+0000032,-0000021,-0000013,+0000015,-0000074,+0004153,-0000766,+0000470,-0002354,15:00:11.933687
0.025256,+0000006,-0000013,-0000002,+0000028,-0000069,+0004158,-0000766,+0000470,-0002354,15:00:11.933687
0.025589,+0000003,-0000014,-0000019,+0000029,-0000088,+0004116,-0000766,+0000470,-0002354,15:00:11.933687
0.025922,+0000013,-0000010,-0000013,+0000038,-0000108,+0004127,-0000768,+0000478,-0002340,15:00:11.933687
0.026255,+0000013,-0000027,-0000010,+0000022,-0000100,+0004135,-0000768,+0000478,-0002340,15:00:11.933687
0.026588,+0000003,-0000023,-0000015,+0000035,-0000072,+0004119,-0000768,+0000478,-0002340,15:00:11.933687
0.026921,+0000016,-0000022,-0000011,+0000030,-0000088,+0004123,-0000768,+0000460,-0002355,15:00:11.933687
0.027254,+0000019,-0000029,-0000012,+0000015,-0000086,+0004103,-0000768,+0000460,-0002355,15:00:11.933687
0.027587,+0000019,-0000019,-0000010,+0000027,-0000093,+0004106,-0000768,+0000460,-0002355,15:00:11.933687
0.027920,-0000003,-0000010,+0000001,+0000028,-0000088,+0004133,-0000766,+0000460,-0002371,15:00:11.933687
0.028253,+0000016,-0000016,-0000005,+0000036,-0000076,+0004114,-0000766,+0000460,-0002371,15:00:11.933687
0.028586,+0000019,-0000026,-0000016,+0000008,-0000074,+0004130,-0000766,+0000460,-0002371,15:00:11.933687
0.028919,+0000022,-0000040,-0000005,+0000023,-0000107,+0004143,-0000754,+0000454,-0002327,15:00:11.933687
0.029252,+0000005,-0000023,-0000011,+0000015,-0000091,+0004132,-0000754,+0000454,-0002327,15:00:11.933687
0.029585,+0000014,-0000015,-0000007,+0000000,-0000106,+0004133,-0000754,+0000454,-0002327,15:00:11.933687
0.029918,+0000008,-0000015,+0000000,+0000029,-0000071,+0004136,-0000762,+0000472,-0002339,15:00:11.933687
0.030251,+0000024,-0000030,-0000002,+0000030,-0000086,+0004147,-0000762,+0000472,-0002339,15:00:11.933687
0.030584,+0000011,-0000019,+0000000,+0000022,-0000091,+0004143,-0000762,+0000472,-0002339,15:00:11.933687
0.030917,+0000017,-0000037,-0000015,+0000022,-0000092,+0004150,-0000764,+0000474,-0002330,15:00:11.933687
0.031250,+0000022,-0000026,-0000007,+0000017,-0000050,+0004147,-0000764,+0000474,-0002330,15:00:11.933687
0.031583,-0000002,-0000015,-0000004,+0000024,-0000070,+0004160,-0000764,+0000474,-0002330,15:00:11.933687
0.031916,-0000003,+0000003,-0000003,+0000007,-0000084,+0004141,-0000768,+0000468,-0002340,15:00:11.933687
0.032249,+0000022,-0000040,-0000016,+0000030,-0000076,+0004164,-0000768,+0000468,-0002340,15:00:11.933687
0.032582,+0000024,-0000028,+0000003,+0000039,-0000087,+0004172,-0000768,+0000468,-0002340,15:00:11.933687
0.032915,+0000019,-0000034,-0000021,+0000021,-0000071,+0004175,-0000794,+0000468,-0002331,15:00:11.933687
0.033248,+0000013,-0000029,-0000015,+0000039,-0000069,+0004182,-0000794,+0000468,-0002331,15:00:11.933687
0.033581,+0000008,+0000008,-0000005,+0000035,-0000090,+0004170,-0000794,+0000468,-0002331,15:00:11.933687
0.033914,+0000008,-0000016,-0000004,+0000049,-0000082,+0004157,-0000778,+0000480,-0002356,15:00:11.933687
0.034247,+0000030,-0000035,-0000010,+0000028,-0000075,+0004171,-0000778,+0000480,-0002356,15:00:11.933687
0.034580,+0000010,-0000043,+0000000,+0000001,-0000065,+0004166,-0000778,+0000480,-0002356,15:00:11.933687
0.034913,+0000041,-0000031,-0000015,+0000014,-0000068,+0004163,-0000772,+0000474,-0002311,15:00:11.933687
0.035246,+0000011,-0000023,+0000006,+0000008,-0000081,+0004170,-0000772,+0000474,-0002311,15:00:11.933687
0.035579,-0000003,-0000014,-0000013,+0000005,-0000064,+0004170,-0000772,+0000474,-0002311,15:00:11.934683
0.035912,+0000021,-0000038,-0000019,+0000004,-0000078,+0004191,-0000772,+0000472,-0002344,15:00:11.970464
0.036247,-0000005,-0000010,+0000008,+0000010,-0000080,+0004185,-0000772,+0000472,-0002344,15:00:11.970464
0.036582,+0000033,-0000048,-0000027,+0000017,-0000084,+0004129,-0000772,+0000472,-0002344,15:00:11.970464
0.037263,+0000002,-0000018,-0000003,+0000020,-0000070,+0004148,-0000776,+0000450,-0002351,15:00:11.970464
0.037625,+0000010,-0000021,-0000024,+0000017,-0000070,+0004162,-0000776,+0000450,-0002351,15:00:11.970464
0.037998,+0000005,-0000042,-0000020,+0000025,-0000085,+0004175,-0000776,+0000450,-0002351,15:00:11.970464
0.038244,+0000022,-0000042,-0000020,+0000025,-0000085,+0004138,-0000784,+0000476,-0002334,15:00:11.970464
0.038577,+0000008,-0000031,-0000013,+0000028,-0000095,+0004127,-0000784,+0000476,-0002334,15:00:11.970464
0.038909,+0000025,-0000035,-0000010,+0000036,-0000086,+0004130,-0000784,+0000476,-0002334,15:00:11.970464
0.039243,+0000002,-0000008,-0000008,+0000017,-0000072,+0004148,-0000778,+0000468,-0002347,15:00:11.970464
0.039576,+0000002,-0000016,-0000002,+0000028,-0000083,+0004144,-0000778,+0000468,-0002347,15:00:11.970464
0.039910,+0000022,-0000023,-0000016,+0000015,-0000099,+0004147,-0000778,+0000468,-0002347,15:00:11.972464
0.040241,+0000013,-0000035,-0000019,+0000029,-0000092,+0004133,-0000784,+0000474,-0002322,15:00:11.972464
0.040574,+0000017,-0000040,-0000006,+0000026,-0000095,+0004136,-0000784,+0000474,-0002322,15:00:11.972464
0.040907,+0000024,-0000031,-0000018,+0000012,-0000087,+0004156,-0000784,+0000474,-0002322,15:00:11.972464
0.041240,+0000000,-0000016,-0000002,+0000012,-0000092,+0004135,-0000790,+0000466,-0002337,15:00:11.972464
0.041574,+0000014,-0000010,-0000015,+0000020,-0000084,+0004154,-0000790,+0000466,-0002337,15:00:11.972464
0.041906,+0000008,-0000027,-0000008,+0000020,-0000078,+0004131,-0000790,+0000466,-0002337,15:00:11.972464
0.042239,+0000011,-0000032,-0000018,+0000012,-0000087,+0004119,-0000772,+0000476,-0002311,15:00:11.972464
0.042572,+0000027,-0000029,-0000013,+0000005,-0000095,+0004135,-0000772,+0000476,-0002311,15:00:11.972464
0.042906,+0000010,-0000018,-0000008,+0000031,-0000103,+0004122,-0000772,+0000476,-0002311,15:00:11.972464
0.043238,+0000013,-0000019,+0000003,+0000025,-0000084,+0004129,-0000772,+0000468,-0002353,15:00:11.972464
0.043571,-0000003,-0000021,-0000016,+0000021,-0000090,+0004145,-0000772,+0000468,-0002353,15:00:11.972464
0.043904,+0000016,-0000013,-0000019,+0000026,-0000089,+0004149,-0000772,+0000468,-0002353,15:00:11.972464
0.044237,+0000016,-0000042,-0000007,+0000029,-0000075,+0004140,-0000758,+0000468,-0002320,15:00:11.972464
0.044570,+0000018,-0000019,-0000004,+0000026,-0000080,+0004147,-0000758,+0000468,-0002320,15:00:11.973460
0.044903,+0000010,-0000034,-0000013,+0000024,-0000096,+0004171,-0000758,+0000468,-0002320,15:00:11.973460
0.045236,+0000005,-0000027,-0000011,+0000011,-0000066,+0004155,-0000774,+0000468,-0002326,15:00:11.973460
0.045569,+0000003,-0000017,-0000010,+0000027,-0000075,+0004130,-0000774,+0000468,-0002326,15:00:11.973460
0.045902,+0000024,-0000026,+0000004,+0000012,-0000099,+0004155,-0000774,+0000468,-0002326,15:00:11.973460
0.046235,+0000022,-0000047,-0000011,+0000008,-0000080,+0004169,-0000794,+0000474,-0002331,15:00:11.974457
0.046609,+0000019,-0000024,-0000005,+0000028,-0000085,+0004156,-0000794,+0000474,-0002331,15:00:11.974457
0.046901,+0000018,-0000023,-0000005,+0000021,-0000091,+0004165,-0000794,+0000474,-0002331,15:00:11.974457
0.047234,+0000011,-0000008,-0000006,+0000029,-0000070,+0004159,-0000772,+0000484,-0002332,15:00:11.974457
0.047567,+0000014,-0000013,-0000008,+0000025,-0000071,+0004162,-0000772,+0000484,-0002332,15:00:11.974457
0.047900,+0000027,-0000033,-0000015,+0000017,-0000096,+0004161,-0000772,+0000484,-0002332,15:00:11.974457
0.048233,+0000014,-0000040,-0000011,+0000027,-0000093,+0004151,-0000772,+0000468,-0002343,15:00:11.974457
0.048566,+0000019,-0000035,+0000004,+0000006,-0000086,+0004165,-0000772,+0000468,-0002343,15:00:11.974457
0.048899,+0000002,-0000012,-0000010,+0000018,-0000065,+0004173,-0000772,+0000468,-0002343,15:00:11.974457
0.049232,+0000008,-0000016,-0000005,+0000027,-0000071,+0004184,-0000762,+0000462,-0002334,15:00:11.974457
0.049565,+0000028,-0000021,-0000006,+0000033,-0000080,+0004168,-0000762,+0000462,-0002334,15:00:11.974457
0.049898,+0000013,-0000032,-0000013,+0000009,-0000069,+0004150,-0000762,+0000462,-0002334,15:00:11.974457
0.050231,+0000025,-0000044,-0000008,+0000024,-0000066,+0004149,-0000748,+0000486,-0002336,15:00:11.974457
0.050564,+0000016,-0000018,+0000001,+0000010,-0000086,+0004183,-0000748,+0000486,-0002336,15:00:11.974457
0.050938,+0000018,-0000021,-0000021,+0000019,-0000090,+0004168,-0000748,+0000486,-0002336,15:00:11.974457
0.051230,-0000004,-0000007,+0000001,+0000010,-0000068,+0004157,-0000772,+0000492,-0002337,15:00:11.974457
0.051567,+0000003,-0000020,-0000016,+0000030,-0000063,+0004141,-0000772,+0000492,-0002337,15:00:11.974457
0.051896,+0000019,-0000034,-0000003,+0000018,-0000067,+0004132,-0000772,+0000492,-0002337,15:00:11.974457
0.052229,-0000002,-0000025,-0000021,+0000019,-0000076,+0004154,-0000782,+0000466,-0002318,15:00:11.974457
0.052562,+0000017,-0000018,+0000000,+0000019,-0000112,+0004144,-0000782,+0000466,-0002318,15:00:11.974457
0.052895,-0000012,-0000012,-0000006,+0000033,-0000097,+0004148,-0000782,+0000466,-0002318,15:00:11.974457
0.053228,+0000025,-0000015,-0000013,+0000031,-0000086,+0004132,-0000760,+0000476,-0002316,15:00:11.974457
0.053561,-0000005,-0000019,-0000002,+0000006,-0000083,+0004151,-0000760,+0000476,-0002316,15:00:11.974457
0.053894,+0000028,-0000029,-0000022,+0000021,-0000075,+0004165,-0000760,+0000476,-0002316,15:00:11.974457
0.054227,+0000004,-0000024,+0000004,+0000016,-0000086,+0004145,-0000762,+0000460,-0002327,15:00:11.974457
0.054560,+0000021,-0000024,-0000015,+0000031,-0000083,+0004152,-0000762,+0000460,-0002327,15:00:11.974457
0.054893,+0000002,-0000016,-0000013,+0000019,-0000102,+0004144,-0000762,+0000460,-0002327,15:00:11.974457
0.055226,+0000021,-0000013,-0000011,+0000025,-0000064,+0004142,-0000762,+0000490,-0002375,15:00:11.974457
0.055620,+0000017,-0000029,-0000003,+0000032,-0000059,+0004142,-0000762,+0000490,-0002375,15:00:11.974457
0.055897,+0000011,-0000020,-0000008,+0000028,-0000099,+0004146,-0000762,+0000490,-0002375,15:00:11.974457
0.056226,+0000010,-0000026,+0000001,+0000021,-0000096,+0004128,-0000756,+0000474,-0002358,15:00:11.974457
0.056558,+0000013,-0000024,-0000014,+0000010,-0000072,+0004141,-0000756,+0000474,-0002358,15:00:11.974457
0.056891,+0000019,-0000021,-0000004,+0000030,-0000083,+0004134,-0000756,+0000474,-0002358,15:00:11.974457
0.057224,-0000001,-0000012,-0000007,+0000034,-0000084,+0004138,-0000776,+0000488,-0002345,15:00:11.974457
0.057557,+0000007,-0000012,-0000002,+0000017,-0000109,+0004169,-0000776,+0000488,-0002345,15:00:11.974457
0.057890,+0000027,-0000035,-0000020,+0000009,-0000078,+0004149,-0000776,+0000488,-0002345,15:00:11.974457
0.058223,+0000014,-0000027,-0000006,+0000018,-0000080,+0004147,-0000760,+0000466,-0002350,15:00:11.974457
0.058556,+0000010,-0000030,-0000007,+0000020,-0000070,+0004154,-0000760,+0000466,-0002350,15:00:11.974457
0.058889,+0000017,-0000016,-0000022,+0000019,-0000080,+0004153,-0000760,+0000466,-0002350,15:00:11.974457
0.059222,-0000006,-0000013,+0000001,+0000033,-0000075,+0004154,-0000772,+0000476,-0002362,15:00:11.974457
0.059555,+0000018,-0000021,-0000015,+0000025,-0000069,+0004153,-0000772,+0000476,-0002362,15:00:11.975468
0.059888,+0000016,-0000029,+0000001,+0000033,-0000085,+0004158,-0000772,+0000476,-0002362,15:00:11.975468
0.060221,+0000021,-0000050,-0000015,+0000032,-0000089,+0004158,-0000780,+0000462,-0002354,15:00:11.975468
0.060554,+0000017,-0000019,-0000012,+0000026,-0000076,+0004147,-0000780,+0000462,-0002354,15:00:11.975468
0.060887,-0000003,-0000005,+0000006,+0000037,-0000076,+0004127,-0000780,+0000462,-0002354,15:00:11.975468
0.061220,+0000008,-0000007,-0000003,+0000016,-0000067,+0004128,-0000780,+0000464,-0002348,15:00:11.975468
0.061553,+0000017,-0000034,-0000018,+0000015,-0000075,+0004142,-0000780,+0000464,-0002348,15:00:11.975468
0.061886,+0000015,-0000039,+0000001,+0000014,-0000080,+0004152,-0000780,+0000464,-0002348,15:00:11.975468
0.062219,+0000024,-0000037,-0000016,+0000011,-0000094,+0004151,-0000772,+0000480,-0002328,15:00:11.975468
0.062552,+0000014,-0000018,-0000022,+0000010,-0000076,+0004157,-0000772,+0000480,-0002328,15:00:11.975468
0.062885,-0000001,-0000010,-0000002,+0000029,-0000066,+0004148,-0000772,+0000480,-0002328,15:00:11.975468
0.063218,+0000006,-0000024,-0000012,+0000019,-0000100,+0004168,-0000758,+0000460,-0002304,15:00:11.975468
0.063551,+0000027,-0000035,-0000013,+0000015,-0000067,+0004148,-0000758,+0000460,-0002304,15:00:11.975468
0.063884,+0000014,-0000037,-0000013,+0000015,-0000079,+0004146,-0000758,+0000460,-0002304,15:00:11.975468
0.064217,+0000016,-0000021,-0000008,+0000011,-0000102,+0004151,-0000776,+0000464,-0002327,15:00:11.975468
0.064550,+0000006,-0000008,-0000008,+0000025,-0000082,+0004163,-0000776,+0000464,-0002327,15:00:11.975468
0.064883,+0000011,-0000010,-0000003,+0000021,-0000080,+0004148,-0000776,+0000464,-0002327,15:00:11.975468
0.065216,+0000022,-0000023,+0000006,+0000020,-0000063,+0004152,-0000760,+0000456,-0002330,15:00:11.975468
0.065549,+0000006,-0000034,-0000010,+0000035,-0000081,+0004160,-0000760,+0000456,-0002330,15:00:11.975468
0.065882,+0000039,-0000015,+0000000,+0000025,-0000059,+0004175,-0000760,+0000456,-0002330,15:00:11.975468
0.066215,+0000010,-0000018,+0000001,+0000037,-0000094,+0004161,-0000782,+0000472,-0002356,15:00:11.975468
0.066548,+0000005,-0000014,-0000020,+0000029,-0000083,+0004171,-0000782,+0000472,-0002356,15:00:11.975468
0.066881,+0000016,-0000002,-0000008,+0000030,-0000065,+0004161,-0000782,+0000472,-0002356,15:00:11.975468
0.067214,+0000008,-0000030,-0000003,+0000023,-0000074,+0004136,-0000782,+0000480,-0002380,15:00:11.975468
0.067547,+0000019,-0000038,-0000010,+0000023,-0000079,+0004156,-0000782,+0000480,-0002380,15:00:11.975468
0.067880,+0000002,-0000023,-0000005,-0000001,-0000070,+0004138,-0000782,+0000480,-0002380,15:00:11.975468
0.068213,+0000027,-0000021,-0000019,+0000028,-0000085,+0004125,-0000768,+0000458,-0002348,15:00:11.975468
0.068546,-0000005,-0000013,+0000003,+0000024,-0000060,+0004158,-0000768,+0000458,-0002348,15:00:11.975468
0.068879,+0000022,-0000010,-0000013,+0000035,-0000087,+0004151,-0000768,+0000458,-0002348,15:00:11.975468
0.069212,-0000017,-0000018,-0000010,+0000010,-0000068,+0004159,-0000786,+0000458,-0002338,15:00:11.975468
0.069545,+0000011,-0000031,-0000016,+0000024,-0000078,+0004160,-0000786,+0000458,-0002338,15:00:11.975468
0.069878,+0000025,-0000024,-0000002,+0000021,-0000098,+0004166,-0000786,+0000458,-0002338,15:00:11.975468
0.070211,+0000010,-0000026,-0000019,+0000014,-0000062,+0004191,-0000766,+0000474,-0002358,15:00:11.975468
0.070544,+0000005,-0000019,-0000005,+0000029,-0000073,+0004166,-0000766,+0000474,-0002358,15:00:11.975468
0.070877,+0000000,-0000016,+0000001,+0000040,-0000082,+0004152,-0000766,+0000474,-0002358,15:00:11.975468
0.071210,+0000003,-0000018,-0000005,+0000039,-0000087,+0004163,-0000760,+0000456,-0002366,15:00:11.975468
0.071543,+0000024,-0000031,-0000008,+0000026,-0000074,+0004157,-0000760,+0000456,-0002366,15:00:11.976453
0.071876,+0000016,-0000040,-0000013,+0000016,-0000083,+0004155,-0000760,+0000456,-0002366,15:00:11.976453
0.072209,+0000016,-0000016,-0000011,+0000027,-0000092,+0004151,-0000756,+0000470,-0002345,15:00:11.976453
0.072542,-0000003,-0000013,-0000002,+0000021,-0000050,+0004139,-0000756,+0000470,-0002345,15:00:11.976453
0.072875,+0000003,-0000003,+0000014,+0000009,-0000096,+0004158,-0000756,+0000470,-0002345,15:00:11.976453
0.073208,+0000017,-0000035,-0000016,+0000028,-0000084,+0004158,-0000780,+0000484,-0002352,15:00:11.976453
0.073541,+0000029,-0000036,-0000010,+0000017,-0000070,+0004151,-0000780,+0000484,-0002352,15:00:11.976453
0.073874,+0000013,-0000042,-0000006,+0000024,-0000066,+0004149,-0000780,+0000484,-0002352,15:00:11.976453
0.074207,+0000016,-0000029,-0000011,+0000033,-0000081,+0004176,-0000762,+0000474,-0002361,15:00:11.976453
0.074540,+0000000,-0000005,-0000005,+0000019,-0000075,+0004163,-0000762,+0000474,-0002361,15:00:11.976453
0.074873,+0000005,-0000013,-0000002,+0000019,-0000071,+0004152,-0000762,+0000474,-0002361,15:00:11.976453
0.075206,+0000027,-0000029,-0000019,+0000016,-0000069,+0004145,-0000766,+0000476,-0002354,15:00:11.976453
0.075539,+0000017,-0000032,+0000000,+0000029,-0000097,+0004144,-0000766,+0000476,-0002354,15:00:11.976453
0.075872,+0000016,-0000031,-0000013,+0000035,-0000087,+0004137,-0000766,+0000476,-0002354,15:00:11.976453
0.076205,+0000008,-0000010,-0000014,+0000009,-0000083,+0004151,-0000758,+0000482,-0002313,15:00:11.976453
0.076538,+0000008,-0000024,-0000002,+0000008,-0000079,+0004166,-0000758,+0000482,-0002313,15:00:11.976453
0.076871,+0000013,-0000019,-0000007,+0000027,-0000087,+0004133,-0000758,+0000482,-0002313,15:00:11.976453
0.077204,+0000025,-0000034,-0000013,+0000017,-0000077,+0004145,-0000762,+0000474,-0002333,15:00:11.976453
0.077537,+0000019,-0000027,-0000005,+0000035,-0000085,+0004155,-0000762,+0000474,-0002333,15:00:11.976453
0.077870,+0000021,-0000016,+0000004,+0000031,-0000083,+0004124,-0000762,+0000474,-0002333,15:00:11.976453
0.078203,+0000005,-0000008,-0000015,+0000040,-0000096,+0004141,-0000780,+0000482,-0002350,15:00:11.976453
0.078536,+0000014,-0000015,-0000013,+0000029,-0000089,+0004151,-0000780,+0000482,-0002350,15:00:11.976453
0.078869,+0000008,-0000016,-0000002,+0000026,-0000100,+0004124,-0000780,+0000482,-0002350,15:00:11.976453
0.079202,+0000022,-0000032,-0000007,+0000017,-0000083,+0004146,-0000760,+0000462,-0002332,15:00:11.976453
0.079535,+0000028,-0000034,-0000005,+0000010,-0000104,+0004148,-0000760,+0000462,-0002332,15:00:11.976453
0.079868,+0000008,+0000000,-0000010,+0000021,-0000093,+0004141,-0000760,+0000462,-0002332,15:00:11.976453
0.080201,+0000019,-0000016,-0000019,+0000009,-0000067,+0004133,-0000770,+0000470,-0002339,15:00:11.976453
0.080534,+0000002,-0000010,+0000006,+0000037,-0000077,+0004174,-0000770,+0000470,-0002339,15:00:11.976453
0.080867,+0000016,-0000023,-0000010,+0000018,-0000099,+0004139,-0000770,+0000470,-0002339,15:00:11.976453
0.081200,+0000013,-0000024,-0000010,+0000015,-0000091,+0004144,-0000770,+0000460,-0002346,15:00:11.976453
0.081534,+0000019,-0000030,-0000008,+0000002,-0000079,+0004161,-0000770,+0000460,-0002346,15:00:11.976453
0.081866,+0000010,-0000024,-0000005,+0000006,-0000066,+0004136,-0000770,+0000460,-0002346,15:00:11.976453
0.082199,+0000015,-0000024,-0000010,+0000017,-0000080,+0004119,-0000784,+0000472,-0002337,15:00:11.976453
0.082532,+0000019,-0000007,-0000011,+0000032,-0000079,+0004134,-0000784,+0000472,-0002337,15:00:11.976453
0.082865,-0000001,-0000024,-0000007,+0000023,-0000079,+0004157,-0000784,+0000472,-0002337,15:00:11.976453
0.083198,+0000019,-0000029,-0000015,+0000036,-0000075,+0004158,-0000774,+0000490,-0002346,15:00:11.976453
0.083531,+0000027,-0000024,-0000013,+0000028,-0000060,+0004159,-0000774,+0000490,-0002346,15:00:11.976453
0.083864,-0000005,-0000022,-0000005,+0000027,-0000095,+0004139,-0000774,+0000490,-0002346,15:00:11.976453
0.084197,+0000016,-0000021,-0000014,+0000009,-0000067,+0004157,-0000778,+0000488,-0002301,15:00:11.976453
0.084530,+0000011,-0000016,-0000005,+0000024,-0000086,+0004135,-0000778,+0000488,-0002301,15:00:11.976453
0.084863,+0000021,-0000026,-0000010,+0000033,-0000075,+0004153,-0000778,+0000488,-0002301,15:00:11.976453
0.085196,+0000005,-0000030,-0000008,+0000026,-0000080,+0004157,-0000782,+0000464,-0002323,15:00:11.976453
0.085529,+0000022,-0000031,+0000003,+0000025,-0000100,+0004162,-0000782,+0000464,-0002323,15:00:11.977454
0.085862,+0000019,-0000043,-0000018,+0000046,-0000083,+0004171,-0000782,+0000464,-0002323,15:00:11.977454
0.086197,+0000000,-0000009,-0000008,+0000035,-0000071,+0004184,-0000778,+0000484,-0002337,15:00:12.046915
0.086529,+0000006,-0000031,+0000003,+0000028,-0000065,+0004167,-0000778,+0000484,-0002337,15:00:12.046915
0.086864,+0000007,-0000007,-0000010,+0000018,-0000077,+0004163,-0000778,+0000484,-0002337,15:00:12.046915
0.087429,+0000010,-0000013,-0000005,+0000026,-0000078,+0004177,-0000774,+0000470,-0002340,15:00:12.046915
0.087733,+0000021,-0000015,-0000005,+0000008,-0000082,+0004165,-0000774,+0000470,-0002340,15:00:12.046915
0.088088,-0000006,+0000006,-0000005,+0000031,-0000066,+0004172,-0000774,+0000470,-0002340,15:00:12.046915
0.088292,+0000014,-0000035,-0000004,+0000031,-0000066,+0004172,-0000772,+0000470,-0002340,15:00:12.046915
0.088732,+0000009,-0000007,+0000000,+0000029,-0000087,+0004162,-0000772,+0000470,-0002340,15:00:12.046915
0.088928,+0000009,-0000007,+0000000,+0000029,-0000087,+0004162,-0000772,+0000470,-0002340,15:00:12.046915
0.089194,+0000011,-0000024,-0000010,+0000005,-0000093,+0004168,-0000778,+0000478,-0002345,15:00:12.046915
0.089527,-0000003,-0000008,-0000003,+0000015,-0000084,+0004145,-0000778,+0000478,-0002345,15:00:12.046915
0.089863,+0000000,-0000005,+0000001,+0000025,-0000084,+0004146,-0000778,+0000478,-0002345,15:00:12.046915
0.090194,+0000011,-0000034,-0000015,+0000023,-0000087,+0004168,-0000780,+0000476,-0002356,15:00:12.046915
0.090524,+0000028,-0000031,-0000008,+0000021,-0000087,+0004139,-0000780,+0000476,-0002356,15:00:12.046915
0.090857,+0000007,-0000011,-0000008,+0000020,-0000088,+0004158,-0000780,+0000476,-0002356,15:00:12.046915
0.091191,+0000028,-0000042,-0000007,+0000028,-0000082,+0004163,-0000784,+0000480,-0002346,15:00:12.046915
0.091524,+0000019,-0000023,-0000005,+0000022,-0000082,+0004148,-0000784,+0000480,-0002346,15:00:12.046915
0.091857,+0000002,-0000013,-0000016,+0000017,-0000074,+0004144,-0000784,+0000480,-0002346,15:00:12.046915
0.092190,+0000000,+0000004,+0000002,+0000017,-0000080,+0004149,-0000768,+0000460,-0002329,15:00:12.046915
0.092524,+0000019,-0000034,-0000005,+0000029,-0000085,+0004147,-0000768,+0000460,-0002329,15:00:12.046915
0.092856,+0000027,-0000035,-0000011,+0000009,-0000084,+0004145,-0000768,+0000460,-0002329,15:00:12.046915
0.093188,+0000005,-0000037,-0000015,+0000037,-0000077,+0004140,-0000756,+0000472,-0002337,15:00:12.046915
0.093522,+0000003,-0000002,-0000006,+0000028,-0000078,+0004115,-0000756,+0000472,-0002337,15:00:12.046915
0.093856,+0000006,-0000034,-0000010,+0000025,-0000083,+0004131,-0000756,+0000472,-0002337,15:00:12.046915
0.094187,+0000020,-0000005,+0000001,+0000027,-0000088,+0004126,-0000774,+0000480,-0002362,15:00:12.046915
0.094520,-0000008,-0000030,-0000005,+0000038,-0000078,+0004162,-0000774,+0000480,-0002362,15:00:12.046915
0.094853,+0000035,-0000029,-0000008,+0000029,-0000096,+0004156,-0000774,+0000480,-0002362,15:00:12.046915
0.095186,+0000019,-0000029,-0000015,+0000029,-0000088,+0004138,-0000754,+0000488,-0002346,15:00:12.046915
0.095519,+0000020,-0000023,-0000008,+0000022,-0000073,+0004142,-0000754,+0000488,-0002346,15:00:12.046915
0.095852,+0000006,-0000019,-0000005,+0000017,-0000093,+0004125,-0000754,+0000488,-0002346,15:00:12.047924
0.096185,+0000011,-0000019,-0000005,+0000030,-0000078,+0004137,-0000756,+0000484,-0002331,15:00:12.047924
0.096518,+0000008,-0000011,-0000010,+0000021,-0000080,+0004142,-0000756,+0000484,-0002331,15:00:12.047924
0.096851,+0000025,-0000042,-0000007,+0000042,-0000077,+0004132,-0000756,+0000484,-0002331,15:00:12.047924
0.097184,+0000030,-0000036,-0000022,+0000013,-0000078,+0004150,-0000774,+0000472,-0002342,15:00:12.047924
0.097517,+0000016,-0000018,+0000003,+0000021,-0000072,+0004134,-0000774,+0000472,-0002342,15:00:12.047924
0.097850,+0000005,-0000008,-0000016,+0000041,-0000088,+0004132,-0000774,+0000472,-0002342,15:00:12.047924
0.098183,+0000008,-0000007,-0000002,+0000014,-0000071,+0004155,-0000748,+0000464,-0002345,15:00:12.047924
0.098516,+0000016,-0000002,-0000004,+0000020,-0000095,+0004150,-0000748,+0000464,-0002345,15:00:12.047924
0.098849,+0000009,-0000030,-0000011,+0000032,-0000089,+0004136,-0000748,+0000464,-0002345,15:00:12.047924
0.099182,+0000038,-0000039,-0000013,+0000026,-0000083,+0004136,-0000766,+0000480,-0002338,15:00:12.047924
0.099515,+0000016,-0000018,-0000011,+0000026,-0000096,+0004161,-0000766,+0000480,-0002338,15:00:12.047924
0.099848,-0000001,-0000015,-0000005,+0000018,-0000069,+0004158,-0000766,+0000480,-0002338,15:00:12.047924
0.100181,-0000003,+0000000,-0000005,+0000023,-0000098,+0004153,-0000774,+0000484,-0002346,15:00:12.047924
0.100514,+0000013,-0000037,-0000016,+0000005,-0000073,+0004153,-0000774,+0000484,-0002346,15:00:12.047924
0.100847,+0000029,-0000029,-0000003,+0000029,-0000068,+0004164,-0000774,+0000484,-0002346,15:00:12.047924
0.101180,+0000021,-0000023,-0000005,+0000018,-0000102,+0004150,-0000768,+0000466,-0002344,15:00:12.047924
0.101513,+0000017,-0000026,-0000012,+0000032,-0000070,+0004151,-0000768,+0000466,-0002344,15:00:12.047924
0.101846,+0000004,-0000013,+0000003,+0000030,-0000075,+0004158,-0000768,+0000466,-0002344,15:00:12.047924
0.102179,+0000013,-0000018,-0000018,+0000016,-0000078,+0004156,-0000776,+0000462,-0002321,15:00:12.047924
0.102512,+0000018,-0000034,+0000002,+0000034,-0000092,+0004147,-0000776,+0000462,-0002321,15:00:12.047924
0.102845,+0000022,-0000029,+0000000,+0000011,-0000077,+0004135,-0000776,+0000462,-0002321,15:00:12.047924
0.103178,+0000024,-0000029,-0000016,+0000041,-0000098,+0004146,-0000776,+0000472,-0002328,15:00:12.047924
0.103511,+0000002,-0000008,+0000001,+0000008,-0000079,+0004155,-0000776,+0000472,-0002328,15:00:12.047924
0.103844,+0000009,-0000023,-0000023,+0000043,-0000084,+0004171,-0000776,+0000472,-0002328,15:00:12.047924
0.104177,+0000010,-0000013,-0000013,+0000025,-0000067,+0004160,-0000756,+0000456,-0002346,15:00:12.047924
0.104510,+0000006,-0000030,+0000001,+0000028,-0000067,+0004149,-0000756,+0000456,-0002346,15:00:12.048912
0.104843,+0000035,-0000048,-0000013,+0000034,-0000082,+0004171,-0000756,+0000456,-0002346,15:00:12.048912
0.105176,+0000016,-0000015,+0000006,+0000034,-0000099,+0004149,-0000764,+0000478,-0002336,15:00:12.048912
0.105509,+0000016,-0000023,-0000014,+0000030,-0000080,+0004142,-0000764,+0000478,-0002336,15:00:12.048912
0.105842,+0000006,-0000003,+0000006,+0000011,-0000079,+0004126,-0000764,+0000478,-0002336,15:00:12.048912
0.106175,+0000011,-0000032,-0000007,+0000024,-0000078,+0004141,-0000782,+0000486,-0002352,15:00:12.048912
0.106508,+0000011,-0000027,-0000008,+0000027,-0000082,+0004158,-0000782,+0000486,-0002352,15:00:12.048912
0.106841,+0000024,-0000019,-0000012,+0000006,-0000084,+0004166,-0000782,+0000486,-0002352,15:00:12.048912
0.107174,+0000024,-0000016,-0000012,+0000027,-0000087,+0004153,-0000772,+0000478,-0002343,15:00:12.048912
0.107769,+0000013,-0000023,-0000018,+0000040,-0000089,+0004156,-0000772,+0000478,-0002343,15:00:12.048912
0.107944,+0000013,-0000023,+0000003,+0000024,-0000104,+0004151,-0000772,+0000478,-0002343,15:00:12.048912
0.108173,+0000014,-0000015,+0000003,+0000024,-0000104,+0004138,-0000768,+0000456,-0002344,15:00:12.048912
0.108506,+0000028,-0000047,-0000018,+0000009,-0000070,+0004141,-0000768,+0000456,-0002344,15:00:12.048912
0.108839,+0000013,-0000016,-0000002,+0000026,-0000094,+0004156,-0000768,+0000456,-0002344,15:00:12.048912
0.109172,+0000017,-0000018,-0000003,+0000027,-0000066,+0004164,-0000776,+0000458,-0002337,15:00:12.048912
0.109505,+0000008,-0000020,-0000016,+0000019,-0000083,+0004136,-0000776,+0000458,-0002337,15:00:12.048912
0.109838,-0000006,+0000005,-0000002,+0000020,-0000093,+0004129,-0000776,+0000458,-0002337,15:00:12.048912
0.110171,+0000016,-0000023,-0000003,+0000020,-0000081,+0004125,-0000762,+0000472,-0002331,15:00:12.048912
0.110504,+0000029,-0000036,-0000013,+0000024,-0000080,+0004155,-0000762,+0000472,-0002331,15:00:12.048912
0.110837,+0000014,-0000028,-0000012,+0000013,-0000089,+0004156,-0000762,+0000472,-0002331,15:00:12.048912
0.111170,+0000021,-0000029,-0000008,+0000028,-0000063,+0004152,-0000774,+0000480,-0002352,15:00:12.048912
0.111503,-0000003,-0000013,-0000011,+0000030,-0000084,+0004155,-0000774,+0000480,-0002352,15:00:12.048912
0.111836,+0000016,-0000019,-0000007,+0000022,-0000065,+0004152,-0000774,+0000480,-0002352,15:00:12.048912
0.112169,+0000008,-0000022,-0000007,+0000011,-0000089,+0004170,-0000782,+0000480,-0002342,15:00:12.048912
0.112502,+0000016,-0000036,-0000005,+0000019,-0000079,+0004152,-0000782,+0000480,-0002342,15:00:12.048912
0.112835,+0000016,-0000042,-0000014,+0000036,-0000069,+0004150,-0000782,+0000480,-0002342,15:00:12.048912
0.113168,+0000016,-0000023,-0000015,+0000042,-0000091,+0004145,-0000768,+0000480,-0002327,15:00:12.048912
0.113501,+0000007,-0000021,+0000000,+0000021,-0000064,+0004135,-0000768,+0000480,-0002327,15:00:12.048912
0.113834,+0000006,+0000000,+0000006,+0000026,-0000091,+0004159,-0000768,+0000480,-0002327,15:00:12.048912
0.114167,+0000016,-0000034,-0000013,+0000021,-0000094,+0004144,-0000754,+0000476,-0002345,15:00:12.048912
0.114500,+0000032,-0000045,-0000016,+0000018,-0000097,+0004138,-0000754,+0000476,-0002345,15:00:12.048912
0.114833,+0000013,-0000039,-0000004,+0000024,-0000083,+0004143,-0000754,+0000476,-0002345,15:00:12.048912
0.115166,+0000020,-0000021,-0000017,+0000017,-0000081,+0004143,-0000786,+0000478,-0002343,15:00:12.048912
0.115499,+0000002,-0000002,+0000003,+0000023,-0000056,+0004164,-0000786,+0000478,-0002343,15:00:12.048912
0.115845,+0000002,-0000016,+0000000,+0000032,-0000080,+0004149,-0000786,+0000478,-0002343,15:00:12.048912
0.116165,+0000031,-0000027,-0000021,+0000026,-0000072,+0004155,-0000788,+0000470,-0002338,15:00:12.048912
0.116498,+0000011,-0000032,-0000012,+0000030,-0000065,+0004153,-0000788,+0000470,-0002338,15:00:12.048912
0.116844,+0000027,-0000042,-0000010,+0000004,-0000105,+0004154,-0000788,+0000470,-0002338,15:00:12.048912
0.117164,+0000008,-0000003,+0000001,+0000011,-0000093,+0004154,-0000780,+0000468,-0002348,15:00:12.048912
0.117497,+0000011,-0000013,+0000001,+0000023,-0000070,+0004145,-0000780,+0000468,-0002348,15:00:12.048912
0.117843,+0000005,-0000018,-0000008,+0000020,-0000089,+0004151,-0000780,+0000468,-0002348,15:00:12.048912
0.118163,+0000016,-0000034,-0000008,+0000026,-0000091,+0004186,-0000770,+0000480,-0002341,15:00:12.048912
0.118496,+0000018,-0000032,-0000016,+0000033,-0000102,+0004161,-0000770,+0000480,-0002341,15:00:12.048912
0.118842,+0000003,-0000016,+0000000,+0000029,-0000083,+0004154,-0000770,+0000480,-0002341,15:00:12.048912
0.119163,+0000005,-0000015,-0000017,+0000008,-0000087,+0004154,-0000786,+0000474,-0002358,15:00:12.048912
0.119495,+0000035,-0000029,-0000008,+0000028,-0000103,+0004144,-0000786,+0000474,-0002358,15:00:12.048912
0.119841,-0000003,-0000008,-0000007,+0000025,-0000078,+0004139,-0000786,+0000474,-0002358,15:00:12.048912
0.120163,+0000024,-0000023,-0000012,+0000022,-0000070,+0004152,-0000774,+0000484,-0002301,15:00:12.048912
0.120494,+0000016,-0000027,-0000011,+0000025,-0000069,+0004128,-0000774,+0000484,-0002301,15:00:12.048912
0.120834,-0000003,-0000005,-0000005,+0000060,-0000068,+0004153,-0000774,+0000484,-0002301,15:00:12.048912
0.121160,+0000018,-0000021,-0000019,+0000060,-0000088,+0004154,-0000770,+0000474,-0002298,15:00:12.048912
0.121493,+0000002,-0000010,+0000006,+0000032,-0000094,+0004140,-0000770,+0000474,-0002298,15:00:12.048912
0.121826,+0000027,-0000026,-0000010,+0000019,-0000107,+0004148,-0000770,+0000474,-0002298,15:00:12.048912
0.122160,-0000003,-0000027,-0000005,+0000011,-0000072,+0004131,-0000770,+0000492,-0002315,15:00:12.048912
0.122492,+0000013,-0000035,-0000013,+0000022,-0000088,+0004144,-0000770,+0000492,-0002315,15:00:12.048912
0.122825,+0000016,-0000021,-0000005,-0000001,-0000088,+0004160,-0000770,+0000492,-0002315,15:00:12.048912
0.123160,+0000010,-0000019,-0000003,+0000006,-0000086,+0004156,-0000764,+0000488,-0002343,15:00:12.048912
0.123491,+0000000,+0000000,-0000013,+0000001,-0000088,+0004155,-0000764,+0000488,-0002343,15:00:12.048912
0.123824,+0000010,-0000018,+0000006,+0000028,-0000083,+0004153,-0000764,+0000488,-0002343,15:00:12.048912
0.124160,+0000030,-0000041,-0000023,+0000015,-0000074,+0004157,-0000768,+0000496,-0002313,15:00:12.048912
0.124490,+0000009,-0000026,-0000010,+0000020,-0000092,+0004151,-0000768,+0000496,-0002313,15:00:12.048912
0.124823,+0000018,-0000026,+0000000,+0000014,-0000087,+0004145,-0000768,+0000496,-0002313,15:00:12.048912
0.125156,+0000010,-0000023,-0000016,+0000015,-0000084,+0004139,-0000774,+0000492,-0002340,15:00:12.048912
0.125489,-0000001,-0000003,-0000003,+0000021,-0000093,+0004145,-0000774,+0000492,-0002340,15:00:12.048912
0.125822,+0000022,-0000021,-0000008,+0000034,-0000074,+0004146,-0000774,+0000492,-0002340,15:00:12.048912
0.126156,+0000008,-0000043,-0000008,+0000026,-0000082,+0004162,-0000780,+0000476,-0002327,15:00:12.048912
0.126488,+0000019,-0000035,-0000016,+0000029,-0000066,+0004142,-0000780,+0000476,-0002327,15:00:12.048912
0.126821,+0000014,-0000029,-0000002,+0000028,-0000077,+0004157,-0000780,+0000476,-0002327,15:00:12.048912
0.127156,+0000003,-0000010,-0000002,+0000014,-0000066,+0004155,-0000764,+0000474,-0002340,15:00:12.048912
0.127487,+0000011,-0000020,-0000005,+0000009,-0000097,+0004160,-0000764,+0000474,-0002340,15:00:12.048912
0.127820,+0000025,-0000026,-0000002,+0000028,-0000097,+0004166,-0000764,+0000474,-0002340,15:00:12.048912
0.128156,+0000002,-0000026,-0000013,+0000023,-0000075,+0004153,-0000766,+0000470,-0002345,15:00:12.048912
0.128486,+0000024,-0000034,-0000008,+0000021,-0000101,+0004131,-0000766,+0000470,-0002345,15:00:12.048912
0.128819,+0000016,-0000026,-0000010,+0000028,-0000081,+0004146,-0000766,+0000470,-0002345,15:00:12.048912
0.129156,+0000003,-0000007,-0000016,+0000015,-0000069,+0004133,-0000772,+0000480,-0002335,15:00:12.048912
0.129485,+0000011,-0000015,+0000005,+0000017,-0000074,+0004150,-0000772,+0000480,-0002335,15:00:12.048912
0.129818,+0000013,-0000031,-0000013,+0000035,-0000077,+0004173,-0000772,+0000480,-0002335,15:00:12.048912
0.130156,+0000027,-0000034,-0000005,+0000038,-0000090,+0004117,-0000786,+0000468,-0002316,15:00:12.048912
0.130484,+0000009,-0000027,-0000010,+0000028,-0000067,+0004159,-0000786,+0000468,-0002316,15:00:12.048912
0.130817,+0000002,-0000003,+0000008,+0000020,-0000074,+0004166,-0000786,+0000468,-0002316,15:00:12.048912
0.131155,+0000022,-0000020,-0000007,+0000027,-0000077,+0004148,-0000778,+0000470,-0002338,15:00:12.048912
0.131483,+0000003,-0000026,-0000005,+0000008,-0000086,+0004139,-0000778,+0000470,-0002338,15:00:12.048912
0.131816,+0000022,-0000030,-0000008,+0000017,-0000085,+0004133,-0000778,+0000470,-0002338,15:00:12.048912
0.132154,+0000019,-0000051,-0000008,+0000030,-0000073,+0004128,-0000776,+0000480,-0002338,15:00:12.048912
0.132482,+0000025,-0000023,-0000012,+0000008,-0000091,+0004151,-0000776,+0000480,-0002338,15:00:12.048912
0.132815,-0000006,-0000018,+0000014,+0000027,-0000084,+0004152,-0000776,+0000480,-0002338,15:00:12.048912
0.133154,+0000014,-0000015,-0000021,+0000020,-0000075,+0004170,-0000760,+0000464,-0002341,15:00:12.048912
0.133481,+0000015,-0000018,-0000002,+0000038,-0000067,+0004176,-0000760,+0000464,-0002341,15:00:12.048912
0.133814,+0000028,-0000026,-0000007,+0000035,-0000088,+0004144,-0000760,+0000464,-0002341,15:00:12.048912
0.134153,+0000016,-0000023,-0000008,+0000025,-0000080,+0004146,-0000780,+0000482,-0002332,15:00:12.048912
0.134480,-0000009,-0000012,-0000012,+0000013,-0000089,+0004146,-0000780,+0000482,-0002332,15:00:12.048912
0.134813,+0000019,-0000018,-0000007,+0000029,-0000087,+0004129,-0000780,+0000482,-0002332,15:00:12.048912
0.135152,+0000007,-0000016,-0000003,+0000002,-0000069,+0004144,-0000800,+0000462,-0002335,15:00:12.048912
0.135479,+0000010,-0000026,-0000010,+0000023,-0000081,+0004136,-0000800,+0000462,-0002335,15:00:12.048912
0.135812,+0000019,-0000035,-0000013,+0000018,-0000086,+0004147,-0000800,+0000462,-0002335,15:00:12.048912
0.136154,+0000026,-0000026,-0000008,+0000027,-0000085,+0004150,-0000770,+0000478,-0002357,15:00:12.069920
0.136480,+0000017,-0000024,-0000016,+0000032,-0000076,+0004150,-0000770,+0000478,-0002357,15:00:12.069920
0.136823,+0000000,-0000016,-0000002,+0000028,-0000073,+0004149,-0000770,+0000478,-0002357,15:00:12.069920
0.137484,-0000012,-0000002,+0000001,+0000026,-0000078,+0004146,-0000770,+0000462,-0002351,15:00:12.069920
0.138048,-0000002,-0000002,-0000002,+0000016,-0000091,+0004160,-0000770,+0000462,-0002351,15:00:12.069920
0.138231,-0000002,-0000002,-0000002,+0000016,-0000091,+0004160,-0000770,+0000462,-0002351,15:00:12.069920
0.138624,+0000016,-0000020,+0000000,+0000032,-0000076,+0004154,-0000776,+0000472,-0002339,15:00:12.069920
0.138889,+0000016,-0000016,-0000005,+0000024,-0000096,+0004152,-0000776,+0000472,-0002339,15:00:12.069920
0.139148,-0000005,-0000016,-0000008,+0000043,-0000088,+0004166,-0000776,+0000472,-0002339,15:00:12.069920
0.139543,+0000024,-0000042,-0000013,+0000041,-0000100,+0004163,-0000778,+0000490,-0002343,15:00:12.069920
0.139808,+0000018,-0000035,-0000010,+0000031,-0000100,+0004159,-0000778,+0000490,-0002343,15:00:12.069920
0.140147,+0000016,-0000021,-0000007,+0000049,-0000087,+0004157,-0000778,+0000490,-0002343,15:00:12.069920
0.140474,+0000009,-0000016,+0000000,+0000016,-0000084,+0004155,-0000782,+0000472,-0002346,15:00:12.069920
0.140841,+0000010,-0000015,-0000005,+0000036,-0000089,+0004161,-0000782,+0000472,-0002346,15:00:12.069920
0.141140,+0000002,-0000004,+0000004,+0000008,-0000066,+0004169,-0000782,+0000472,-0002346,15:00:12.069920
0.141473,+0000018,-0000007,-0000008,+0000017,-0000087,+0004183,-0000780,+0000474,-0002338,15:00:12.069920
0.141806,+0000019,-0000028,-0000011,+0000024,-0000074,+0004164,-0000780,+0000474,-0002338,15:00:12.069920
0.142139,+0000032,-0000023,-0000007,+0000047,-0000072,+0004146,-0000780,+0000474,-0002338,15:00:12.069920
0.142472,+0000020,-0000026,-0000014,+0000025,-0000095,+0004153,-0000778,+0000478,-0002356,15:00:12.069920
0.142805,+0000002,+0000000,-0000010,+0000026,-0000095,+0004142,-0000778,+0000478,-0002356,15:00:12.069920
0.143138,+0000013,-0000016,-0000008,+0000019,-0000061,+0004138,-0000778,+0000478,-0002356,15:00:12.069920
0.143471,+0000016,-0000024,-0000007,+0000031,-0000059,+0004146,-0000780,+0000468,-0002336,15:00:12.069920
0.143804,+0000020,-0000039,-0000007,+0000035,-0000084,+0004170,-0000780,+0000468,-0002336,15:00:12.069920
0.144137,+0000016,-0000026,-0000016,+0000031,-0000081,+0004144,-0000780,+0000468,-0002336,15:00:12.069920
0.144470,-0000011,-0000021,-0000010,+0000003,-0000073,+0004152,-0000784,+0000468,-0002346,15:00:12.069920
0.144803,+0000019,-0000005,-0000016,+0000028,-0000097,+0004162,-0000784,+0000468,-0002346,15:00:12.069920
0.145136,+0000000,-0000029,+0000000,+0000016,-0000078,+0004149,-0000784,+0000468,-0002346,15:00:12.069920
0.145469,+0000014,-0000024,-0000007,+0000005,-0000077,+0004127,-0000782,+0000468,-0002345,15:00:12.069920
0.145802,+0000021,-0000036,-0000010,+0000010,-0000079,+0004136,-0000782,+0000468,-0002345,15:00:12.069920
0.146170,+0000003,-0000005,-0000008,+0000012,-0000085,+0004123,-0000782,+0000468,-0002345,15:00:12.069920
0.146468,+0000013,-0000032,-0000012,+0000026,-0000080,+0004156,-0000764,+0000462,-0002312,15:00:12.069920
0.146801,+0000010,-0000021,-0000011,+0000022,-0000072,+0004138,-0000764,+0000462,-0002312,15:00:12.069920
0.147134,+0000004,-0000027,-0000003,+0000034,-0000072,+0004152,-0000764,+0000462,-0002312,15:00:12.069920
0.147467,+0000040,-0000029,-0000024,+0000025,-0000086,+0004146,-0000762,+0000468,-0002335,15:00:12.069920
0.147800,+0000021,-0000024,-0000010,+0000017,-0000074,+0004144,-0000762,+0000468,-0002335,15:00:12.069920
0.148133,+0000006,-0000002,-0000013,+0000025,-0000076,+0004152,-0000762,+0000468,-0002335,15:00:12.069920
0.148466,+0000019,-0000016,-0000005,+0000036,-0000062,+0004137,-0000762,+0000464,-0002351,15:00:12.069920
0.148799,+0000006,-0000021,-0000002,+0000016,-0000077,+0004143,-0000762,+0000464,-0002351,15:00:12.069920
0.149132,+0000019,-0000018,-0000013,+0000036,-0000077,+0004149,-0000762,+0000464,-0002351,15:00:12.069920
0.149465,+0000022,-0000037,-0000007,+0000013,-0000077,+0004148,-0000768,+0000462,-0002341,15:00:12.069920
0.149798,+0000027,-0000026,-0000021,+0000016,-0000094,+0004163,-0000768,+0000462,-0002341,15:00:12.069920
0.150131,+0000011,-0000034,-0000010,+0000039,-0000066,+0004135,-0000768,+0000462,-0002341,15:00:12.069920
0.150464,+0000011,+0000001,-0000013,+0000022,-0000078,+0004145,-0000772,+0000472,-0002333,15:00:12.069920
0.150797,-0000003,-0000027,-0000007,+0000036,-0000091,+0004165,-0000772,+0000472,-0002333,15:00:12.069920
0.151131,+0000027,-0000021,-0000011,+0000030,-0000071,+0004140,-0000772,+0000472,-0002333,15:00:12.069920
0.151463,+0000024,-0000038,-0000011,+0000031,-0000064,+0004152,-0000786,+0000476,-0002316,15:00:12.069920
0.151796,+0000030,-0000034,-0000013,+0000018,-0000085,+0004140,-0000786,+0000476,-0002316,15:00:12.069920
0.152129,+0000005,-0000021,-0000011,+0000018,-0000062,+0004156,-0000786,+0000476,-0002316,15:00:12.069920
0.152462,+0000019,-0000019,-0000005,+0000034,-0000094,+0004154,-0000792,+0000464,-0002327,15:00:12.069920
0.152795,+0000013,-0000021,-0000013,+0000022,-0000058,+0004151,-0000792,+0000464,-0002327,15:00:12.069920
0.153128,+0000019,-0000022,-0000012,+0000024,-0000088,+0004169,-0000792,+0000464,-0002327,15:00:12.069920
0.153461,+0000006,-0000018,-0000005,+0000023,-0000088,+0004157,-0000762,+0000462,-0002333,15:00:12.069920
0.153794,+0000022,-0000040,-0000015,+0000013,-0000088,+0004162,-0000762,+0000462,-0002333,15:00:12.069920
0.154127,+0000017,-0000023,-0000002,+0000034,-0000086,+0004141,-0000762,+0000462,-0002333,15:00:12.069920
0.154460,-0000008,-0000005,+0000000,+0000034,-0000066,+0004161,-0000772,+0000476,-0002330,15:00:12.069920
0.154793,+0000005,-0000012,-0000010,+0000004,-0000083,+0004160,-0000772,+0000476,-0002330,15:00:12.070916
0.155126,+0000018,-0000029,-0000002,+0000004,-0000100,+0004162,-0000772,+0000476,-0002330,15:00:12.070916
0.155459,+0000016,-0000035,-0000002,+0000034,-0000071,+0004156,-0000756,+0000456,-0002307,15:00:12.070916
0.155792,+0000038,-0000028,-0000018,+0000027,-0000070,+0004148,-0000756,+0000456,-0002307,15:00:12.070916
0.156125,+0000019,-0000024,-0000014,+0000036,-0000083,+0004141,-0000756,+0000456,-0002307,15:00:12.070916
0.156458,+0000005,+0000000,-0000007,+0000024,-0000088,+0004160,-0000766,+0000472,-0002314,15:00:12.070916
0.156791,+0000010,-0000026,-0000013,+0000019,-0000072,+0004155,-0000766,+0000472,-0002314,15:00:12.070916
0.157124,+0000013,-0000029,-0000010,+0000032,-0000106,+0004174,-0000766,+0000472,-0002314,15:00:12.070916
0.157457,+0000016,-0000043,-0000010,+0000036,-0000088,+0004164,-0000520,+0000472,-0002310,15:00:12.070916
0.157790,+0000022,-0000032,-0000007,+0000024,-0000068,+0004160,-0000520,+0000472,-0002310,15:00:12.070916
0.158123,+0000011,-0000019,-0000002,+0000016,-0000074,+0004153,-0000520,+0000472,-0002310,15:00:12.070916
0.158456,+0000014,-0000026,-0000013,+0000018,-0000078,+0004152,-0000754,+0000470,-0002340,15:00:12.070916
0.158789,+0000017,-0000016,+0000001,-0000003,-0000103,+0004145,-0000754,+0000470,-0002340,15:00:12.070916
0.159122,+0000018,-0000024,-0000008,+0000011,-0000096,+0004149,-0000754,+0000470,-0002340,15:00:12.070916
0.159455,+0000028,-0000040,-0000010,+0000019,-0000089,+0004147,-0000774,+0000476,-0002332,15:00:12.070916
0.159788,+0000017,-0000029,-0000016,+0000009,-0000081,+0004144,-0000774,+0000476,-0002332,15:00:12.070916
0.160121,+0000003,+0000000,+0000001,+0000024,-0000078,+0004143,-0000774,+0000476,-0002332,15:00:12.070916
0.160454,+0000008,-0000020,-0000015,-0000007,-0000081,+0004132,-0000764,+0000470,-0002343,15:00:12.070916
0.160845,+0000007,-0000013,-0000010,+0000038,-0000091,+0004139,-0000764,+0000470,-0002343,15:00:12.070916
0.161123,+0000026,-0000037,-0000008,+0000038,-0000078,+0004134,-0000764,+0000470,-0002343,15:00:12.070916
0.161453,-0000004,+0000000,-0000004,+0000012,-0000090,+0004163,-0000774,+0000466,-0002340,15:00:12.070916
0.161786,+0000010,-0000023,-0000014,+0000036,-0000075,+0004153,-0000774,+0000466,-0002340,15:00:12.070916
0.162119,+0000005,-0000008,-0000003,+0000038,-0000076,+0004168,-0000774,+0000466,-0002340,15:00:12.070916
0.162452,+0000002,-0000014,-0000010,+0000018,-0000102,+0004150,-0000772,+0000470,-0002321,15:00:12.070916
0.162785,+0000011,-0000023,-0000004,+0000023,-0000106,+0004155,-0000772,+0000470,-0002321,15:00:12.070916
0.163118,+0000022,-0000037,-0000004,+0000043,-0000074,+0004121,-0000772,+0000470,-0002321,15:00:12.070916
0.163451,+0000016,-0000031,-0000004,+0000024,-0000103,+0004155,-0000772,+0000478,-0002351,15:00:12.070916
0.163784,+0000019,-0000026,-0000019,+0000019,-0000079,+0004134,-0000772,+0000478,-0002351,15:00:12.070916
0.164162,+0000007,-0000005,+0000000,+0000032,-0000074,+0004142,-0000772,+0000478,-0002351,15:00:12.070916
0.164450,+0000013,-0000013,-0000007,+0000013,-0000076,+0004142,-0000766,+0000474,-0002313,15:00:12.070916
0.164783,+0000021,-0000045,-0000002,+0000005,-0000094,+0004138,-0000766,+0000474,-0002313,15:00:12.070916
0.165116,+0000030,-0000040,-0000020,+0000018,-0000097,+0004142,-0000766,+0000474,-0002313,15:00:12.070916
0.165671,+0000011,-0000029,-0000027,+0000034,-0000078,+0004161,-0000764,+0000482,-0002325,15:00:12.070916
0.165970,-0000001,-0000004,+0000004,+0000022,-0000086,+0004148,-0000764,+0000482,-0002325,15:00:12.070916
0.166115,-0000001,-0000004,+0000004,+0000022,-0000086,+0004148,-0000764,+0000482,-0002325,15:00:12.070916
0.166554,+0000002,-0000021,-0000016,+0000015,-0000072,+0004143,-0000774,+0000472,-0002317,15:00:12.070916
0.166781,-0000003,-0000007,-0000007,+0000018,-0000074,+0004157,-0000774,+0000472,-0002317,15:00:12.070916
0.167114,+0000011,-0000031,-0000018,+0000023,-0000071,+0004163,-0000774,+0000472,-0002317,15:00:12.070916
0.167447,+0000024,-0000042,-0000007,+0000012,-0000073,+0004168,-0000756,+0000464,-0002321,15:00:12.070916
0.167782,+0000014,-0000013,-0000011,+0000023,-0000090,+0004168,-0000756,+0000464,-0002321,15:00:12.070916
0.168114,+0000010,-0000020,-0000003,+0000019,-0000067,+0004153,-0000756,+0000464,-0002321,15:00:12.070916
0.168447,-0000001,-0000003,-0000008,+0000028,-0000088,+0004167,-0000770,+0000490,-0002313,15:00:12.070916
0.168780,+0000013,-0000026,-0000008,+0000020,-0000067,+0004171,-0000770,+0000490,-0002313,15:00:12.070916
0.169112,+0000022,-0000029,+0000005,+0000001,-0000090,+0004170,-0000770,+0000490,-0002313,15:00:12.070916
0.169446,+0000020,-0000034,-0000022,+0000013,-0000079,+0004182,-0000776,+0000488,-0002308,15:00:12.070916
0.169779,+0000014,-0000034,-0000003,+0000025,-0000066,+0004168,-0000776,+0000488,-0002308,15:00:12.070916
0.170111,+0000006,+0000001,-0000002,+0000019,-0000088,+0004170,-0000776,+0000488,-0002308,15:00:12.070916
0.170444,+0000025,-0000018,-0000005,+0000016,-0000080,+0004145,-0000776,+0000474,-0002354,15:00:12.070916
0.170777,+0000010,-0000029,-0000008,+0000022,-0000068,+0004152,-0000776,+0000474,-0002354,15:00:12.070916
0.171110,+0000022,-0000034,-0000008,+0000013,-0000079,+0004153,-0000776,+0000474,-0002354,15:00:12.070916
0.171443,+0000030,-0000040,-0000013,+0000031,-0000104,+0004156,-0000772,+0000466,-0002339,15:00:12.070916
0.171776,+0000022,-0000011,-0000018,+0000029,-0000089,+0004168,-0000772,+0000466,-0002339,15:00:12.070916
0.172109,-0000003,-0000014,-0000003,+0000025,-0000095,+0004176,-0000772,+0000466,-0002339,15:00:12.070916
0.172442,+0000011,-0000016,-0000008,+0000030,-0000082,+0004166,-0000764,+0000484,-0002360,15:00:12.070916
0.172775,+0000010,-0000035,-0000011,+0000045,-0000087,+0004156,-0000764,+0000484,-0002360,15:00:12.070916
0.173108,+0000032,-0000044,-0000016,+0000032,-0000087,+0004148,-0000764,+0000484,-0002360,15:00:12.072215
0.173441,+0000005,-0000028,-0000016,+0000010,-0000094,+0004136,-0000772,+0000492,-0002349,15:00:12.072215
0.173774,-0000011,-0000004,-0000010,+0000019,-0000058,+0004139,-0000772,+0000492,-0002349,15:00:12.072215
0.174107,+0000010,-0000019,-0000005,+0000015,-0000092,+0004145,-0000772,+0000492,-0002349,15:00:12.072215
0.174440,+0000006,-0000034,-0000007,+0000012,-0000073,+0004166,-0000744,+0000474,-0002324,15:00:12.072215
0.174773,+0000022,-0000037,-0000013,+0000020,-0000062,+0004156,-0000744,+0000474,-0002324,15:00:12.072215
0.175106,+0000017,-0000016,-0000011,+0000020,-0000066,+0004144,-0000744,+0000474,-0002324,15:00:12.072215
0.175439,+0000005,-0000021,+0000001,+0000030,-0000075,+0004154,-0000760,+0000482,-0002335,15:00:12.072215
0.175772,+0000016,-0000018,-0000023,+0000026,-0000100,+0004139,-0000760,+0000482,-0002335,15:00:12.072215
0.176105,-0000002,-0000010,+0000003,+0000023,-0000093,+0004135,-0000760,+0000482,-0002335,15:00:12.072215
0.176438,+0000024,-0000024,-0000014,+0000029,-0000089,+0004137,-0000768,+0000472,-0002322,15:00:12.072215
0.176771,+0000008,-0000021,-0000008,+0000042,-0000102,+0004129,-0000768,+0000472,-0002322,15:00:12.072215
0.177104,+0000008,-0000033,-0000024,+0000026,-0000090,+0004143,-0000768,+0000472,-0002322,15:00:12.072215
0.177437,+0000003,-0000015,-0000010,+0000031,-0000076,+0004148,-0000758,+0000484,-0002322,15:00:12.072215
0.177770,+0000007,-0000008,-0000005,+0000017,-0000084,+0004128,-0000758,+0000484,-0002322,15:00:12.072215
0.178103,+0000002,-0000022,-0000008,+0000027,-0000081,+0004144,-0000758,+0000484,-0002322,15:00:12.072215
0.178436,+0000013,-0000024,+0000001,+0000008,-0000054,+0004142,-0000758,+0000478,-0002344,15:00:12.072215
0.178769,+0000036,-0000055,-0000016,+0000025,-0000092,+0004155,-0000758,+0000478,-0002344,15:00:12.072215
0.179102,+0000003,-0000013,-0000003,+0000005,-0000089,+0004158,-0000758,+0000478,-0002344,15:00:12.072215
0.179435,+0000014,-0000023,-0000013,+0000023,-0000102,+0004153,-0000760,+0000470,-0002332,15:00:12.072215
0.179768,+0000008,-0000010,-0000016,+0000043,-0000084,+0004152,-0000760,+0000470,-0002332,15:00:12.072215
0.180101,+0000010,-0000013,-0000005,+0000018,-0000098,+0004158,-0000760,+0000470,-0002332,15:00:12.072215
0.180434,+0000022,-0000029,-0000011,+0000028,-0000090,+0004165,-0000744,+0000476,-0002330,15:00:12.072215
0.180767,+0000008,-0000011,-0000004,+0000015,-0000069,+0004160,-0000744,+0000476,-0002330,15:00:12.072215
0.181100,+0000025,-0000042,-0000010,+0000017,-0000083,+0004163,-0000744,+0000476,-0002330,15:00:12.072215
0.181433,+0000019,-0000024,-0000012,+0000015,-0000096,+0004142,-0000770,+0000468,-0002332,15:00:12.072215
0.181766,+0000007,-0000018,-0000005,+0000030,-0000073,+0004153,-0000770,+0000468,-0002332,15:00:12.072215
0.182099,+0000013,-0000009,-0000013,+0000021,-0000078,+0004158,-0000770,+0000468,-0002332,15:00:12.072215
0.182432,+0000011,-0000024,+0000004,+0000025,-0000083,+0004169,-0000748,+0000470,-0002327,15:00:12.072215
0.182765,+0000025,-0000042,-0000013,+0000018,-0000085,+0004155,-0000748,+0000470,-0002327,15:00:12.072215
0.183098,+0000016,-0000032,-0000007,+0000020,-0000086,+0004142,-0000748,+0000470,-0002327,15:00:12.072215
0.183431,+0000021,-0000023,-0000007,+0000023,-0000081,+0004163,-0000764,+0000462,-0002338,15:00:12.072215
0.183772,-0000001,+0000006,+0000000,+0000014,-0000077,+0004156,-0000764,+0000462,-0002338,15:00:12.072215
0.184097,+0000008,-0000026,-0000010,+0000028,-0000088,+0004168,-0000764,+0000462,-0002338,15:00:12.072215
0.184430,+0000022,-0000037,-0000008,+0000031,-0000075,+0004156,-0000758,+0000478,-0002332,15:00:12.072215
0.184763,+0000022,-0000026,-0000019,+0000012,-0000078,+0004171,-0000758,+0000478,-0002332,15:00:12.072215
0.185096,+0000025,-0000029,-0000011,+0000030,-0000099,+0004134,-0000758,+0000478,-0002332,15:00:12.072215
0.185429,+0000024,-0000013,-0000007,+0000020,-0000095,+0004138,-0000772,+0000474,-0002303,15:00:12.072215
0.185762,+0000007,-0000024,-0000008,+0000011,-0000074,+0004151,-0000772,+0000474,-0002303,15:00:12.072215
0.186098,-0000001,-0000023,-0000005,+0000027,-0000082,+0004149,-0000772,+0000474,-0002303,15:00:12.142015
0.186429,+0000028,-0000028,-0000006,+0000038,-0000074,+0004144,-0000758,+0000474,-0002327,15:00:12.142015
0.186764,+0000013,-0000039,-0000005,+0000025,-0000081,+0004137,-0000758,+0000474,-0002327,15:00:12.142015
0.187368,+0000017,-0000023,-0000015,+0000026,-0000078,+0004144,-0000758,+0000474,-0002327,15:00:12.142015
0.187572,+0000017,-0000023,-0000015,+0000026,-0000078,+0004144,-0000768,+0000468,-0002324,15:00:12.142015
0.187938,+0000011,-0000034,-0000010,+0000011,-0000092,+0004135,-0000768,+0000468,-0002324,15:00:12.143011
0.188112,+0000011,-0000034,-0000010,+0000011,-0000092,+0004135,-0000768,+0000468,-0002324,15:00:12.143011
0.188613,+0000022,-0000023,-0000007,+0000016,-0000063,+0004151,-0000788,+0000472,-0002343,15:00:12.143011
0.188903,-0000006,-0000026,-0000002,+0000020,-0000081,+0004165,-0000788,+0000472,-0002343,15:00:12.143011
0.189304,+0000022,-0000021,+0000005,+0000029,-0000081,+0004166,-0000788,+0000472,-0002343,15:00:12.143011
0.189450,-0000001,-0000008,+0000005,+0000029,-0000081,+0004166,-0000788,+0000472,-0002343,15:00:12.143011
0.189762,+0000013,-0000032,-0000018,+0000034,-0000074,+0004145,-0000788,+0000472,-0002343,15:00:12.143011
0.190098,+0000015,-0000011,+0000003,+0000030,-0000083,+0004142,-0000788,+0000472,-0002343,15:00:12.143011
0.190559,-0000008,-0000011,-0000008,+0000032,-0000070,+0004143,-0000760,+0000476,-0002344,15:00:12.143011
0.190796,+0000011,-0000018,+0000000,+0000028,-0000084,+0004156,-0000760,+0000476,-0002344,15:00:12.143011
0.191092,-0000003,-0000032,-0000024,+0000019,-0000114,+0004152,-0000760,+0000476,-0002344,15:00:12.143011
0.191424,+0000030,-0000040,+0000006,+0000024,-0000112,+0004148,-0000760,+0000476,-0002344,15:00:12.143011
0.191767,-0000003,-0000015,-0000016,+0000030,-0000096,+0004146,-0000760,+0000476,-0002344,15:00:12.143011
0.192090,+0000008,-0000010,-0000010,+0000029,-0000072,+0004147,-0000760,+0000476,-0002344,15:00:12.143011
0.192423,+0000033,-0000047,-0000014,+0000012,-0000095,+0004125,-0000758,+0000480,-0002348,15:00:12.143011
0.192755,+0000019,-0000021,-0000004,+0000018,-0000065,+0004139,-0000758,+0000480,-0002348,15:00:12.143011
0.193089,+0000014,-0000027,-0000004,+0000018,-0000085,+0004124,-0000758,+0000480,-0002348,15:00:12.143011
0.193423,+0000011,-0000027,-0000019,+0000020,-0000090,+0004144,-0000772,+0000480,-0002321,15:00:12.143011
0.193754,-0000003,-0000005,+0000000,+0000023,-0000090,+0004148,-0000772,+0000480,-0002321,15:00:12.143011
0.194090,+0000003,-0000031,-0000002,+0000017,-0000115,+0004150,-0000772,+0000480,-0002321,15:00:12.143011
0.194420,+0000008,-0000015,-0000010,+0000024,-0000086,+0004147,-0000760,+0000488,-0002343,15:00:12.143011
0.194753,-0000003,-0000013,+0000003,+0000009,-0000087,+0004165,-0000760,+0000488,-0002343,15:00:12.143011
0.195086,+0000030,-0000029,-0000013,+0000025,-0000068,+0004133,-0000760,+0000488,-0002343,15:00:12.143011
0.195419,+0000006,-0000013,-0000006,+0000020,-0000093,+0004174,-0000760,+0000484,-0002365,15:00:12.143011
0.195752,+0000009,-0000015,+0000007,+0000027,-0000093,+0004156,-0000760,+0000484,-0002365,15:00:12.143011
0.196085,+0000014,-0000029,-0000013,+0000021,-0000069,+0004142,-0000760,+0000484,-0002365,15:00:12.143011
0.196418,+0000003,-0000028,-0000001,+0000019,-0000078,+0004168,-0000758,+0000482,-0002361,15:00:12.143011
0.196751,+0000030,-0000047,-0000013,+0000027,-0000084,+0004157,-0000758,+0000482,-0002361,15:00:12.143011
0.197084,-0000005,-0000015,-0000020,+0000025,-0000096,+0004160,-0000758,+0000482,-0002361,15:00:12.143011
0.197417,-0000008,+0000006,-0000007,+0000010,-0000088,+0004157,-0000764,+0000476,-0002330,15:00:12.144008
0.197750,+0000022,-0000034,-0000011,+0000022,-0000076,+0004155,-0000764,+0000476,-0002330,15:00:12.144008
0.198083,+0000024,-0000029,-0000024,+0000022,-0000077,+0004145,-0000764,+0000476,-0002330,15:00:12.144008
0.198416,+0000024,-0000045,+0000006,+0000030,-0000084,+0004158,-0000766,+0000476,-0002345,15:00:12.144008
0.198749,+0000024,-0000034,-0000021,+0000031,-0000097,+0004175,-0000766,+0000476,-0002345,15:00:12.144008
0.199082,+0000019,-0000013,-0000007,+0000026,-0000077,+0004184,-0000766,+0000476,-0002345,15:00:12.144008
0.199415,+0000011,-0000024,-0000003,+0000014,-0000068,+0004150,-0000760,+0000480,-0002324,15:00:12.144008
0.199748,+0000018,-0000029,-0000017,+0000015,-0000094,+0004162,-0000760,+0000480,-0002324,15:00:12.144008
0.200081,+0000017,-0000032,-0000002,+0000017,-0000091,+0004181,-0000760,+0000480,-0002324,15:00:12.144008
0.200414,+0000024,-0000036,-0000008,+0000021,-0000075,+0004171,-0000770,+0000480,-0002318,15:00:12.144008
0.200747,+0000016,-0000026,-0000021,+0000018,-0000097,+0004166,-0000770,+0000480,-0002318,15:00:12.144008
0.201080,-0000008,-0000013,+0000003,+0000022,-0000101,+0004171,-0000770,+0000480,-0002318,15:00:12.144008
0.201413,+0000008,+0000000,-0000006,+0000014,-0000067,+0004165,-0000770,+0000474,-0002342,15:00:12.144008
0.201746,+0000014,-0000027,-0000008,+0000012,-0000091,+0004148,-0000770,+0000474,-0002342,15:00:12.144008
0.202079,+0000027,-0000043,-0000010,+0000017,-0000107,+0004142,-0000770,+0000474,-0002342,15:00:12.144008
0.202412,+0000025,-0000037,-0000012,+0000032,-0000067,+0004166,-0000762,+0000472,-0002331,15:00:12.144008
0.202745,+0000003,-0000009,-0000002,+0000040,-0000110,+0004129,-0000762,+0000472,-0002331,15:00:12.144513
0.203078,+0000019,-0000024,-0000018,+0000026,-0000083,+0004158,-0000762,+0000472,-0002331,15:00:12.144513
0.203411,+0000003,-0000005,+0000006,+0000028,-0000096,+0004142,-0000770,+0000482,-0002319,15:00:12.144513
0.203744,+0000011,-0000029,-0000008,+0000034,-0000074,+0004144,-0000770,+0000482,-0002319,15:00:12.144513
0.204077,+0000025,-0000026,-0000003,+0000027,-0000078,+0004142,-0000770,+0000482,-0002319,15:00:12.144513
0.204410,+0000010,-0000040,-0000016,+0000018,-0000065,+0004146,-0000774,+0000480,-0002306,15:00:12.144513
0.204743,+0000011,-0000011,-0000002,+0000015,-0000078,+0004156,-0000774,+0000480,-0002306,15:00:12.144513
0.205076,+0000013,-0000016,-0000019,+0000021,-0000090,+0004140,-0000774,+0000480,-0002306,15:00:12.144513
0.205409,+0000010,-0000021,-0000011,+0000040,-0000084,+0004153,-0000772,+0000492,-0002335,15:00:12.144513
0.205742,+0000002,-0000022,+0000006,+0000010,-0000067,+0004162,-0000772,+0000492,-0002335,15:00:12.144513
0.206075,+0000016,-0000037,-0000016,+0000005,-0000083,+0004163,-0000772,+0000492,-0002335,15:00:12.144513
0.206408,+0000016,-0000042,-0000002,+0000004,-0000072,+0004175,-0000786,+0000472,-0002328,15:00:12.144513
0.206741,+0000019,-0000019,-0000018,+0000020,-0000076,+0004168,-0000786,+0000472,-0002328,15:00:12.144513
0.207074,+0000005,-0000013,-0000008,+0000012,-0000089,+0004142,-0000786,+0000472,-0002328,15:00:12.144513
0.207407,+0000011,-0000015,-0000001,+0000029,-0000078,+0004156,-0000768,+0000476,-0002338,15:00:12.144513
0.207740,+0000010,-0000019,-0000005,+0000022,-0000092,+0004141,-0000768,+0000476,-0002338,15:00:12.144513
0.208073,+0000019,-0000023,-0000010,+0000013,-0000082,+0004136,-0000768,+0000476,-0002338,15:00:12.144513
0.208406,+0000022,-0000043,-0000011,+0000030,-0000092,+0004127,-0000770,+0000470,-0002323,15:00:12.144513
0.208739,+0000018,-0000014,-0000010,+0000036,-0000074,+0004136,-0000770,+0000470,-0002323,15:00:12.144513
0.209072,+0000007,-0000021,-0000019,+0000033,-0000064,+0004144,-0000770,+0000470,-0002323,15:00:12.144513
0.209405,-0000015,-0000009,-0000008,+0000000,-0000058,+0004147,-0000754,+0000464,-0002352,15:00:12.144513
0.210141,+0000006,-0000027,-0000005,+0000032,-0000073,+0004145,-0000754,+0000464,-0002352,15:00:12.144513
0.210327,+0000011,-0000019,-0000010,+0000032,-0000073,+0004145,-0000754,+0000464,-0002352,15:00:12.145518
0.210456,+0000011,-0000019,-0000010,+0000032,-0000065,+0004153,-0000772,+0000474,-0002344,15:00:12.145518
0.210737,+0000016,-0000019,-0000024,+0000017,-0000075,+0004163,-0000772,+0000474,-0002344,15:00:12.145518
0.211070,+0000013,-0000023,-0000016,+0000022,-0000045,+0004153,-0000772,+0000474,-0002344,15:00:12.145518
0.211403,+0000013,-0000015,+0000000,+0000034,-0000087,+0004141,-0000770,+0000470,-0002355,15:00:12.145518
0.211736,+0000016,-0000042,-0000021,+0000034,-0000086,+0004153,-0000770,+0000470,-0002355,15:00:12.145518
0.212069,+0000016,-0000032,+0000003,+0000024,-0000090,+0004155,-0000770,+0000470,-0002355,15:00:12.145518
0.212402,+0000028,-0000027,-0000021,+0000024,-0000087,+0004136,-0000762,+0000462,-0002332,15:00:12.145518
0.212735,+0000000,-0000018,-0000013,+0000031,-0000072,+0004130,-0000762,+0000462,-0002332,15:00:12.145518
0.213068,+0000017,-0000006,-0000002,+0000024,-0000071,+0004138,-0000762,+0000462,-0002332,15:00:12.145518
0.213401,+0000010,-0000021,-0000004,+0000043,-0000076,+0004141,-0000756,+0000484,-0002321,15:00:12.145518
0.213734,+0000009,-0000032,-0000007,+0000011,-0000083,+0004158,-0000756,+0000484,-0002321,15:00:12.145518
0.214067,+0000025,-0000034,-0000018,+0000010,-0000088,+0004160,-0000756,+0000484,-0002321,15:00:12.145518
0.214400,+0000025,-0000026,-0000015,+0000032,-0000082,+0004134,-0000760,+0000494,-0002343,15:00:12.145518
0.214733,+0000014,-0000013,-0000007,+0000033,-0000070,+0004160,-0000760,+0000494,-0002343,15:00:12.145518
0.215066,+0000011,-0000010,-0000008,+0000026,-0000070,+0004151,-0000760,+0000494,-0002343,15:00:12.145518
0.215399,+0000011,-0000018,-0000002,+0000017,-0000064,+0004161,-0000764,+0000482,-0002317,15:00:12.145518
0.215732,+0000022,-0000031,-0000011,+0000012,-0000085,+0004153,-0000764,+0000482,-0002317,15:00:12.145518
0.216065,+0000022,-0000027,-0000006,+0000026,-0000090,+0004161,-0000764,+0000482,-0002317,15:00:12.145518
0.216398,+0000019,-0000016,-0000011,+0000009,-0000065,+0004153,-0000768,+0000476,-0002335,15:00:12.145518
0.216731,+0000002,-0000024,-0000011,+0000018,-0000096,+0004162,-0000768,+0000476,-0002335,15:00:12.145518
0.217064,+0000010,-0000018,-0000011,+0000029,-0000094,+0004182,-0000768,+0000476,-0002335,15:00:12.145518
0.217397,+0000003,-0000024,-0000007,+0000020,-0000089,+0004179,-0000758,+0000488,-0002327,15:00:12.145518
0.217730,+0000017,-0000032,-0000007,+0000027,-0000092,+0004154,-0000758,+0000488,-0002327,15:00:12.145518
0.218063,+0000020,-0000029,-0000010,+0000005,-0000069,+0004155,-0000758,+0000488,-0002327,15:00:12.145518
0.218396,+0000016,-0000026,-0000013,+0000022,-0000085,+0004148,-0000766,+0000474,-0002338,15:00:12.145518
0.218729,+0000007,-0000013,-0000002,+0000019,-0000074,+0004140,-0000766,+0000474,-0002338,15:00:12.145518
0.219062,+0000010,-0000008,-0000011,+0000021,-0000077,+0004136,-0000766,+0000474,-0002338,15:00:12.145518
0.219395,+0000003,-0000026,-0000008,+0000024,-0000076,+0004143,-0000762,+0000492,-0002345,15:00:12.145518
0.219728,+0000021,-0000026,-0000005,-0000003,-0000069,+0004153,-0000762,+0000492,-0002345,15:00:12.145518
0.220061,+0000023,-0000050,-0000016,+0000018,-0000101,+0004154,-0000762,+0000492,-0002345,15:00:12.145518
0.220394,+0000017,-0000023,-0000010,+0000020,-0000079,+0004127,-0000776,+0000508,-0002355,15:00:12.146856
0.220727,+0000010,-0000010,-0000007,+0000023,-0000073,+0004140,-0000776,+0000508,-0002355,15:00:12.146856
0.221060,+0000000,-0000013,-0000012,+0000025,-0000108,+0004131,-0000776,+0000508,-0002355,15:00:12.146856
0.221393,+0000014,-0000021,-0000002,+0000015,-0000066,+0004141,-0000780,+0000478,-0002332,15:00:12.146856
0.221726,+0000011,-0000011,-0000007,+0000024,-0000095,+0004140,-0000780,+0000478,-0002332,15:00:12.146856
0.222059,+0000022,-0000046,-0000016,+0000017,-0000090,+0004140,-0000780,+0000478,-0002332,15:00:12.146856
0.222392,+0000031,-0000015,-0000011,+0000038,-0000085,+0004143,-0000772,+0000484,-0002342,15:00:12.146856
0.222725,+0000006,-0000007,+0000000,+0000030,-0000080,+0004158,-0000772,+0000484,-0002342,15:00:12.146856
0.223058,+0000014,-0000023,-0000007,+0000025,-0000095,+0004163,-0000772,+0000484,-0002342,15:00:12.146856
0.223391,+0000011,-0000020,-0000003,+0000015,-0000090,+0004147,-0000768,+0000496,-0002346,15:00:12.146856
0.223724,+0000017,-0000040,-0000005,+0000016,-0000084,+0004155,-0000768,+0000496,-0002346,15:00:12.146856
0.224057,+0000016,-0000029,-0000006,+0000023,-0000075,+0004179,-0000768,+0000496,-0002346,15:00:12.146856
0.224390,+0000029,-0000026,-0000019,+0000037,-0000085,+0004148,-0000754,+0000486,-0002316,15:00:12.146856
0.224723,-0000001,-0000004,-0000004,+0000016,-0000103,+0004161,-0000754,+0000486,-0002316,15:00:12.146856
0.225056,+0000013,-0000017,-0000008,+0000021,-0000081,+0004166,-0000754,+0000486,-0002316,15:00:12.146856
0.225389,+0000019,-0000029,+0000008,+0000012,-0000084,+0004146,-0000760,+0000484,-0002329,15:00:12.146856
0.225722,+0000022,-0000035,-0000023,+0000016,-0000089,+0004145,-0000760,+0000484,-0002329,15:00:12.146856
0.226055,+0000021,-0000042,-0000002,+0000037,-0000075,+0004166,-0000760,+0000484,-0002329,15:00:12.146856
0.226388,+0000019,-0000026,-0000015,+0000020,-0000091,+0004153,-0000786,+0000494,-0002328,15:00:12.146856
0.226721,-0000003,-0000023,-0000008,+0000006,-0000082,+0004147,-0000786,+0000494,-0002328,15:00:12.146856
0.227054,+0000003,-0000007,-0000007,+0000033,-0000090,+0004173,-0000786,+0000494,-0002328,15:00:12.146856
0.227387,+0000022,-0000037,-0000018,+0000034,-0000090,+0004167,-0000752,+0000486,-0002335,15:00:12.147860
0.227720,+0000025,-0000039,-0000005,+0000034,-0000073,+0004169,-0000752,+0000486,-0002335,15:00:12.147860
0.228053,+0000019,-0000022,-0000016,+0000036,-0000102,+0004166,-0000752,+0000486,-0002335,15:00:12.147860
0.228386,+0000011,-0000008,-0000007,+0000017,-0000075,+0004142,-0000774,+0000484,-0002328,15:00:12.147860
0.228719,+0000002,-0000019,+0000006,+0000028,-0000080,+0004134,-0000774,+0000484,-0002328,15:00:12.147860
0.229052,+0000032,-0000032,-0000021,+0000015,-0000074,+0004155,-0000774,+0000484,-0002328,15:00:12.147860
0.229385,+0000004,-0000027,+0000010,+0000033,-0000075,+0004134,-0000768,+0000486,-0002343,15:00:12.147860
0.229718,+0000036,-0000018,-0000008,+0000020,-0000076,+0004134,-0000768,+0000486,-0002343,15:00:12.147860
0.230051,+0000022,-0000023,-0000008,+0000029,-0000095,+0004133,-0000768,+0000486,-0002343,15:00:12.147860
0.230384,+0000003,-0000022,-0000008,+0000025,-0000089,+0004139,-0000772,+0000492,-0002336,15:00:12.147860
0.230717,+0000004,-0000018,-0000011,+0000004,-0000074,+0004142,-0000772,+0000492,-0002336,15:00:12.147860
0.231050,+0000015,-0000026,+0000004,+0000024,-0000057,+0004153,-0000772,+0000492,-0002336,15:00:12.147860
0.231383,+0000021,-0000028,+0000001,+0000017,-0000087,+0004152,-0000774,+0000494,-0002327,15:00:12.147860
0.231716,+0000013,-0000029,-0000011,+0000022,-0000086,+0004123,-0000774,+0000494,-0002327,15:00:12.147860
0.232049,+0000020,-0000024,-0000010,+0000045,-0000090,+0004136,-0000774,+0000494,-0002327,15:00:12.147860
0.232382,+0000009,-0000011,-0000018,+0000026,-0000096,+0004148,-0000778,+0000482,-0002341,15:00:12.147860
0.232715,+0000003,-0000008,+0000003,+0000027,-0000088,+0004127,-0000778,+0000482,-0002341,15:00:12.147860
0.233048,+0000014,-0000024,+0000001,+0000005,-0000075,+0004137,-0000778,+0000482,-0002341,15:00:12.147860
0.233381,+0000024,-0000037,-0000022,+0000002,-0000079,+0004150,-0000770,+0000484,-0002329,15:00:12.147860
0.233714,+0000024,-0000034,-0000008,+0000003,-0000084,+0004136,-0000770,+0000484,-0002329,15:00:12.147860
0.234047,+0000016,-0000024,-0000013,+0000022,-0000065,+0004160,-0000770,+0000484,-0002329,15:00:12.147860
0.234380,-0000001,-0000018,+0000001,+0000029,-0000077,+0004163,-0000772,+0000478,-0002327,15:00:12.147860
0.234713,+0000008,-0000010,-0000023,+0000030,-0000088,+0004150,-0000772,+0000478,-0002327,15:00:12.147860
0.235046,+0000018,-0000026,-0000011,+0000036,-0000086,+0004164,-0000772,+0000478,-0002327,15:00:12.147860
0.235379,+0000017,-0000032,+0000000,+0000038,-0000083,+0004171,-0000780,+0000478,-0002336,15:00:12.147860
0.235712,+0000025,-0000031,-0000013,+0000030,-0000080,+0004154,-0000780,+0000478,-0002336,15:00:12.147860
0.236047,+0000005,-0000031,-0000012,+0000028,-0000086,+0004145,-0000780,+0000478,-0002336,15:00:12.169862
0.236379,+0000021,-0000027,-0000007,+0000031,-0000088,+0004171,-0000760,+0000474,-0002362,15:00:12.169862
0.236713,+0000010,-0000012,-0000007,+0000027,-0000097,+0004162,-0000760,+0000474,-0002362,15:00:12.169862
0.237451,+0000016,-0000036,-0000002,+0000023,-0000079,+0004152,-0000760,+0000474,-0002362,15:00:12.169862
0.237963,+0000002,-0000023,-0000005,+0000007,-0000090,+0004164,-0000784,+0000488,-0002340,15:00:12.169862
0.238221,+0000011,-0000015,-0000013,+0000017,-0000072,+0004181,-0000784,+0000488,-0002340,15:00:12.169862
0.238433,+0000000,-0000026,-0000003,+0000034,-0000083,+0004176,-0000784,+0000488,-0002340,15:00:12.169862
0.238724,+0000014,-0000009,-0000011,+0000043,-0000064,+0004148,-0000784,+0000488,-0002340,15:00:12.169862
0.239044,+0000001,-0000017,-0000005,+0000022,-0000058,+0004159,-0000784,+0000488,-0002340,15:00:12.169862
0.239377,+0000005,-0000013,-0000015,+0000026,-0000079,+0004170,-0000784,+0000488,-0002340,15:00:12.169862
0.239708,+0000020,-0000039,-0000014,+0000017,-0000069,+0004165,-0000772,+0000752,-0002332,15:00:12.169862
0.240041,+0000017,-0000012,-0000018,+0000007,-0000095,+0004154,-0000772,+0000752,-0002332,15:00:12.169862
0.240374,+0000013,-0000021,+0000003,+0000022,-0000071,+0004163,-0000772,+0000752,-0002332,15:00:12.169862
0.240708,+0000013,-0000020,-0000008,+0000026,-0000070,+0004159,-0000778,+0000482,-0002314,15:00:12.169862
0.241040,+0000013,-0000029,+0000000,+0000033,-0000073,+0004163,-0000778,+0000482,-0002314,15:00:12.169862
0.241373,+0000008,-0000042,-0000018,+0000023,-0000080,+0004156,-0000778,+0000482,-0002314,15:00:12.169862
0.241731,+0000008,-0000019,-0000019,+0000013,-0000077,+0004171,-0000782,+0000482,-0002349,15:00:12.169862
0.242039,+0000013,-0000037,-0000003,+0000018,-0000067,+0004159,-0000782,+0000482,-0002349,15:00:12.169862
0.242372,+0000018,-0000033,-0000018,+0000013,-0000070,+0004137,-0000782,+0000482,-0002349,15:00:12.169862
0.242705,+0000003,-0000016,+0000004,+0000013,-0000076,+0004143,-0000770,+0000482,-0002349,15:00:12.169862
0.243038,+0000013,-0000034,-0000015,+0000022,-0000086,+0004152,-0000770,+0000482,-0002349,15:00:12.169862
0.243371,+0000025,-0000031,-0000022,+0000021,-0000085,+0004137,-0000770,+0000482,-0002349,15:00:12.169862
0.243704,+0000000,-0000013,-0000006,+0000031,-0000080,+0004170,-0000764,+0000474,-0002333,15:00:12.169862
0.244037,+0000003,-0000016,-0000008,+0000022,-0000078,+0004138,-0000764,+0000474,-0002333,15:00:12.169862
0.244370,+0000021,-0000004,-0000008,+0000036,-0000108,+0004132,-0000764,+0000474,-0002333,15:00:12.169862
0.244703,-0000006,-0000024,+0000006,+0000026,-0000098,+0004134,-0000770,+0000480,-0002331,15:00:12.169862
0.245036,+0000025,-0000029,-0000011,+0000012,-0000080,+0004149,-0000770,+0000480,-0002331,15:00:12.169862
0.245369,+0000008,-0000035,+0000001,+0000035,-0000091,+0004145,-0000770,+0000480,-0002331,15:00:12.169862
0.245702,+0000024,-0000016,-0000014,+0000025,-0000080,+0004125,-0000766,+0000482,-0002340,15:00:12.169862
0.246036,-0000008,-0000003,-0000003,+0000006,-0000085,+0004159,-0000766,+0000482,-0002340,15:00:12.169862
0.246368,+0000014,-0000023,-0000013,+0000034,-0000082,+0004136,-0000766,+0000482,-0002340,15:00:12.169862
0.246701,-0000008,-0000027,-0000005,+0000027,-0000082,+0004140,-0000758,+0000488,-0002334,15:00:12.169862
0.247035,+0000006,-0000034,-0000007,+0000022,-0000106,+0004135,-0000758,+0000488,-0002334,15:00:12.169862
0.247367,+0000024,-0000022,-0000007,+0000021,-0000067,+0004133,-0000758,+0000488,-0002334,15:00:12.169862
0.247700,+0000013,-0000026,-0000016,+0000035,-0000081,+0004154,-0000750,+0000482,-0002326,15:00:12.170861
0.248033,+0000007,-0000015,-0000005,+0000031,-0000090,+0004149,-0000750,+0000482,-0002326,15:00:12.170861
0.248366,+0000004,-0000015,-0000007,+0000021,-0000083,+0004150,-0000750,+0000482,-0002326,15:00:12.170861
0.248699,+0000017,-0000040,-0000013,+0000005,-0000091,+0004151,-0000782,+0000482,-0002355,15:00:12.170861
0.249032,+0000018,-0000019,+0000005,+0000021,-0000096,+0004152,-0000782,+0000482,-0002355,15:00:12.170861
0.249365,+0000018,-0000032,-0000018,+0000021,-0000105,+0004152,-0000782,+0000482,-0002355,15:00:12.170861
0.249698,+0000008,-0000027,-0000003,+0000022,-0000082,+0004145,-0000766,+0000492,-0002358,15:00:12.170861
0.250031,+0000011,-0000007,-0000005,+0000036,-0000083,+0004134,-0000766,+0000492,-0002358,15:00:12.170861
0.250364,+0000009,-0000021,-0000004,+0000009,-0000088,+0004176,-0000766,+0000492,-0002358,15:00:12.170861
0.250697,+0000013,-0000016,+0000001,+0000017,-0000077,+0004167,-0000786,+0000486,-0002359,15:00:12.170861
0.251030,+0000016,-0000037,-0000016,+0000028,-0000093,+0004151,-0000786,+0000486,-0002359,15:00:12.170861
0.251363,+0000027,-0000047,-0000002,+0000027,-0000091,+0004172,-0000786,+0000486,-0002359,15:00:12.170861
0.251696,+0000015,-0000015,-0000022,+0000022,-0000082,+0004172,-0000784,+0000490,-0002342,15:00:12.170861
0.252029,+0000004,-0000013,-0000019,+0000031,-0000078,+0004146,-0000784,+0000490,-0002342,15:00:12.170861
0.252362,+0000007,-0000019,-0000003,+0000022,-0000088,+0004156,-0000784,+0000490,-0002342,15:00:12.170861
0.252695,+0000021,-0000034,-0000008,+0000034,-0000064,+0004155,-0000772,+0000490,-0002314,15:00:12.170861
0.253028,+0000016,-0000036,-0000005,+0000002,-0000076,+0004148,-0000772,+0000490,-0002314,15:00:12.170861
0.253361,+0000020,-0000040,-0000011,+0000032,-0000093,+0004161,-0000772,+0000490,-0002314,15:00:12.170861
0.253694,-0000007,-0000008,+0000004,+0000016,-0000087,+0004136,-0000796,+0000482,-0002362,15:00:12.170861
0.254027,+0000025,-0000013,-0000015,+0000033,-0000083,+0004144,-0000796,+0000482,-0002362,15:00:12.170861
0.254360,-0000002,-0000020,+0000001,+0000039,-0000089,+0004155,-0000796,+0000482,-0002362,15:00:12.170861
0.254693,+0000030,-0000024,-0000015,+0000025,-0000102,+0004151,-0000784,+0000484,-0002338,15:00:12.170861
0.255026,+0000002,-0000034,-0000008,-0000002,-0000057,+0004182,-0000784,+0000484,-0002338,15:00:12.170861
0.255359,+0000019,-0000016,-0000022,+0000025,-0000090,+0004152,-0000784,+0000484,-0002338,15:00:12.170861
0.255692,+0000018,-0000015,-0000006,+0000029,-0000086,+0004150,-0000784,+0000474,-0002344,15:00:12.170861
0.256025,+0000004,-0000013,-0000011,+0000022,-0000078,+0004140,-0000784,+0000474,-0002344,15:00:12.170861
0.256359,+0000013,-0000026,-0000007,+0000033,-0000070,+0004146,-0000784,+0000474,-0002344,15:00:12.170861
0.256691,+0000019,-0000036,-0000005,+0000032,-0000087,+0004148,-0000776,+0000472,-0002344,15:00:12.170861
0.257024,+0000021,-0000016,+0000001,+0000021,-0000088,+0004138,-0000776,+0000472,-0002344,15:00:12.170861
0.257357,+0000010,-0000016,-0000002,+0000037,-0000096,+0004158,-0000776,+0000472,-0002344,15:00:12.170861
0.257690,+0000007,-0000019,-0000023,+0000014,-0000097,+0004148,-0000782,+0000484,-0002323,15:00:12.170861
0.258023,+0000011,-0000011,-0000002,+0000026,-0000084,+0004155,-0000782,+0000484,-0002323,15:00:12.170861
0.258356,+0000010,-0000024,-0000003,+0000035,-0000085,+0004148,-0000782,+0000484,-0002323,15:00:12.170861
0.258689,+0000027,-0000031,-0000002,+0000017,-0000080,+0004146,-0000776,+0000492,-0002343,15:00:12.170861
0.259022,+0000032,-0000042,-0000024,+0000026,-0000092,+0004176,-0000776,+0000492,-0002343,15:00:12.171861
0.259355,+0000008,-0000012,-0000002,+0000034,-0000099,+0004130,-0000776,+0000492,-0002343,15:00:12.171861
0.259688,+0000008,-0000015,-0000008,+0000016,-0000094,+0004138,-0000780,+0000490,-0002334,15:00:12.171861
0.260021,+0000000,-0000008,-0000007,+0000033,-0000076,+0004122,-0000780,+0000490,-0002334,15:00:12.171861
0.260354,+0000005,-0000013,-0000004,+0000021,-0000103,+0004152,-0000780,+0000490,-0002334,15:00:12.171861
0.260687,+0000028,-0000024,-0000010,+0000027,-0000108,+0004150,-0000754,+0000486,-0002322,15:00:12.171861
0.261168,+0000021,-0000026,-0000019,+0000034,-0000075,+0004145,-0000754,+0000486,-0002322,15:00:12.171861
0.261354,+0000013,-0000018,-0000005,+0000034,-0000075,+0004145,-0000754,+0000486,-0002322,15:00:12.171861
0.261691,+0000011,-0000029,-0000014,+0000027,-0000079,+0004135,-0000770,+0000480,-0002344,15:00:12.171861
0.262020,+0000009,-0000031,+0000000,+0000024,-0000089,+0004150,-0000770,+0000480,-0002344,15:00:12.171861
0.262354,+0000018,-0000034,-0000013,+0000029,-0000090,+0004136,-0000770,+0000480,-0002344,15:00:12.171861
0.262685,+0000030,-0000037,-0000008,+0000028,-0000115,+0004138,-0000778,+0000486,-0002314,15:00:12.171861
0.263019,+0000021,-0000032,-0000010,+0000031,-0000099,+0004126,-0000778,+0000486,-0002314,15:00:12.171861
0.263352,+0000006,-0000029,-0000010,+0000017,-0000080,+0004146,-0000778,+0000486,-0002314,15:00:12.171861
0.263685,+0000011,-0000007,-0000019,+0000011,-0000090,+0004127,-0000760,+0000468,-0002361,15:00:12.171861
0.264017,+0000000,-0000011,+0000003,+0000027,-0000106,+0004140,-0000760,+0000468,-0002361,15:00:12.171861
0.264350,+0000022,-0000021,-0000012,+0000034,-0000080,+0004147,-0000760,+0000468,-0002361,15:00:12.171861
0.264684,+0000019,-0000035,-0000010,+0000020,-0000080,+0004151,-0000776,+0000482,-0002321,15:00:12.171861
0.265016,+0000000,-0000024,+0000006,+0000013,-0000066,+0004140,-0000776,+0000482,-0002321,15:00:12.171861
0.265351,+0000019,-0000035,-0000021,+0000025,-0000094,+0004174,-0000776,+0000482,-0002321,15:00:12.171861
0.265682,-0000001,-0000005,+0000001,+0000021,-0000087,+0004149,-0000786,+0000470,-0002328,15:00:12.171861
0.266015,+0000010,-0000024,-0000008,+0000010,-0000075,+0004168,-0000786,+0000470,-0002328,15:00:12.171861
0.266348,+0000022,-0000027,-0000011,+0000005,-0000087,+0004146,-0000786,+0000470,-0002328,15:00:12.171861
0.266681,+0000022,-0000037,-0000003,+0000017,-0000080,+0004144,-0000786,+0000484,-0002339,15:00:12.171861
0.267014,+0000009,-0000032,-0000011,+0000029,-0000099,+0004153,-0000786,+0000484,-0002339,15:00:12.171861
0.267347,+0000007,-0000008,-0000007,+0000023,-0000073,+0004152,-0000786,+0000484,-0002339,15:00:12.171861
0.267680,+0000010,-0000021,-0000010,+0000029,-0000063,+0004145,-0000778,+0000494,-0002337,15:00:12.171861
0.268013,+0000010,-0000029,-0000011,+0000053,-0000071,+0004159,-0000778,+0000494,-0002337,15:00:12.171861
0.268346,+0000002,-0000016,-0000003,+0000043,-0000094,+0004148,-0000778,+0000494,-0002337,15:00:12.171861
0.268679,+0000036,-0000042,-0000016,+0000000,-0000076,+0004162,-0000770,+0000476,-0002345,15:00:12.171861
0.269012,+0000013,-0000019,-0000008,+0000017,-0000085,+0004168,-0000770,+0000476,-0002345,15:00:12.171861
0.269345,+0000000,-0000016,-0000011,+0000024,-0000084,+0004142,-0000770,+0000476,-0002345,15:00:12.171861
0.269678,+0000013,-0000021,-0000003,+0000017,-0000095,+0004153,-0000750,+0000490,-0002334,15:00:12.171861
0.270011,+0000008,-0000013,-0000007,+0000018,-0000073,+0004146,-0000750,+0000490,-0002334,15:00:12.171861
0.270344,+0000014,-0000015,+0000001,+0000020,-0000085,+0004148,-0000750,+0000490,-0002334,15:00:12.171861
0.270677,+0000013,-0000029,-0000011,+0000028,-0000095,+0004183,-0000772,+0000490,-0002345,15:00:12.171861
0.271010,-0000011,-0000005,+0000000,+0000017,-0000073,+0004148,-0000772,+0000490,-0002345,15:00:12.171861
0.271343,+0000014,-0000015,-0000016,+0000012,-0000079,+0004148,-0000772,+0000490,-0002345,15:00:12.171861
0.271676,+0000000,-0000023,+0000001,+0000034,-0000081,+0004145,-0000768,+0000486,-0002347,15:00:12.171861
0.272009,+0000013,-0000015,-0000010,+0000027,-0000082,+0004142,-0000768,+0000486,-0002347,15:00:12.172860
0.272342,+0000024,-0000028,+0000001,+0000031,-0000077,+0004147,-0000768,+0000486,-0002347,15:00:12.172860
0.272675,+0000005,-0000029,-0000012,+0000026,-0000081,+0004138,-0000758,+0000486,-0002341,15:00:12.172860
0.273008,+0000024,-0000038,-0000007,+0000038,-0000060,+0004143,-0000758,+0000486,-0002341,15:00:12.172860
0.273341,+0000010,-0000016,-0000015,+0000037,-0000078,+0004138,-0000758,+0000486,-0002341,15:00:12.172860
0.273674,+0000009,-0000010,-0000004,+0000017,-0000088,+0004158,-0000752,+0000482,-0002344,15:00:12.172860
0.274007,+0000003,-0000030,+0000000,+0000023,-0000090,+0004147,-0000752,+0000482,-0002344,15:00:12.172860
0.274340,+0000019,-0000042,-0000018,+0000044,-0000071,+0004166,-0000752,+0000482,-0002344,15:00:12.172860
0.274673,+0000014,-0000031,-0000005,+0000023,-0000088,+0004155,-0000770,+0000474,-0002339,15:00:12.172860
0.275006,+0000015,-0000018,-0000007,+0000047,-0000083,+0004145,-0000770,+0000474,-0002339,15:00:12.172860
0.275339,+0000002,-0000016,-0000010,+0000035,-0000069,+0004161,-0000770,+0000474,-0002339,15:00:12.172860
0.275672,+0000016,-0000011,-0000004,+0000013,-0000078,+0004164,-0000784,+0000478,-0002330,15:00:12.172860
0.276005,+0000015,-0000010,+0000001,+0000017,-0000078,+0004163,-0000784,+0000478,-0002330,15:00:12.172860
0.276338,+0000016,-0000034,-0000013,+0000030,-0000117,+0004158,-0000784,+0000478,-0002330,15:00:12.172860
0.276671,+0000021,-0000040,-0000008,+0000021,-0000076,+0004135,-0000768,+0000478,-0002344,15:00:12.172860
0.277004,+0000014,-0000021,-0000019,+0000033,-0000077,+0004145,-0000768,+0000478,-0002344,15:00:12.172860
0.277337,+0000011,-0000013,-0000005,+0000026,-0000063,+0004142,-0000768,+0000478,-0002344,15:00:12.172860
0.277670,+0000008,-0000011,+0000006,+0000029,-0000077,+0004138,-0000762,+0000464,-0002318,15:00:12.172860
0.278003,+0000025,-0000023,-0000014,+0000025,-0000089,+0004165,-0000762,+0000464,-0002318,15:00:12.172860
0.278336,+0000013,-0000039,+0000001,+0000019,-0000073,+0004150,-0000762,+0000464,-0002318,15:00:12.172860
0.278669,+0000027,-0000029,-0000011,+0000028,-0000071,+0004155,-0000770,+0000480,-0002315,15:00:12.172860
0.279002,+0000003,-0000027,-0000024,+0000007,-0000072,+0004139,-0000770,+0000480,-0002315,15:00:12.172860
0.279335,+0000002,+0000000,+0000001,+0000040,-0000073,+0004150,-0000770,+0000480,-0002315,15:00:12.172860
0.279668,+0000003,-0000011,-0000014,+0000026,-0000075,+0004128,-0000784,+0000482,-0002336,15:00:12.172860
0.280001,+0000025,-0000034,-0000019,+0000024,-0000082,+0004145,-0000784,+0000482,-0002336,15:00:12.173328
0.280334,+0000013,-0000035,-0000004,+0000026,-0000084,+0004164,-0000784,+0000482,-0002336,15:00:12.173328
0.280667,+0000027,-0000032,-0000026,+0000030,-0000078,+0004164,-0000776,+0000470,-0002334,15:00:12.173328
0.281000,+0000001,-0000016,-0000013,+0000019,-0000064,+0004166,-0000776,+0000470,-0002334,15:00:12.173328
0.281333,+0000000,-0000009,-0000005,+0000015,-0000103,+0004149,-0000776,+0000470,-0002334,15:00:12.173328
0.281666,+0000005,-0000026,-0000004,+0000025,-0000103,+0004147,-0000774,+0000482,-0002330,15:00:12.173328
0.281999,+0000021,-0000029,-0000005,+0000026,-0000071,+0004145,-0000774,+0000482,-0002330,15:00:12.173328
0.282332,+0000030,-0000054,-0000016,+0000030,-0000083,+0004159,-0000774,+0000482,-0002330,15:00:12.173328
0.282665,+0000014,-0000011,+0000001,+0000016,-0000085,+0004171,-0000770,+0000478,-0002338,15:00:12.173608
0.282998,+0000011,-0000018,-0000021,+0000007,-0000074,+0004143,-0000770,+0000478,-0002338,15:00:12.173608
0.283331,+0000005,-0000013,-0000001,+0000033,-0000072,+0004189,-0000770,+0000478,-0002338,15:00:12.173608
0.283664,+0000009,-0000016,-0000007,+0000016,-0000090,+0004144,-0000772,+0000486,-0002328,15:00:12.173608
0.283997,+0000019,-0000037,-0000013,+0000020,-0000092,+0004162,-0000772,+0000486,-0002328,15:00:12.173608
0.284330,+0000021,-0000026,-0000002,+0000030,-0000094,+0004154,-0000772,+0000486,-0002328,15:00:12.173608
0.284663,+0000016,-0000020,-0000018,+0000026,-0000070,+0004158,-0000776,+0000472,-0002342,15:00:12.173608
0.284996,+0000011,-0000015,+0000006,+0000021,-0000085,+0004136,-0000776,+0000472,-0002342,15:00:12.174613
0.285329,+0000000,-0000013,-0000012,+0000025,-0000066,+0004146,-0000776,+0000472,-0002342,15:00:12.174613
0.285662,+0000025,-0000021,-0000006,+0000024,-0000076,+0004156,-0000762,+0000472,-0002342,15:00:12.174613
0.285996,+0000003,-0000027,-0000014,+0000034,-0000090,+0004150,-0000762,+0000472,-0002342,15:00:12.247370
0.286330,+0000020,-0000036,-0000003,+0000015,-0000090,+0004139,-0000762,+0000472,-0002342,15:00:12.247370
0.286665,+0000009,-0000027,-0000021,+0000009,-0000091,+0004136,-0000784,+0000492,-0002337,15:00:12.247370
0.286999,+0000006,-0000012,-0000003,+0000011,-0000094,+0004143,-0000784,+0000492,-0002337,15:00:12.247370
0.287488,+0000030,-0000048,-0000018,+0000008,-0000080,+0004158,-0000784,+0000492,-0002337,15:00:12.247370
0.287680,+0000030,+0000000,+0000000,+0000029,-0000087,+0004142,-0000778,+0000490,-0002330,15:00:12.247370
0.288084,+0000019,-0000032,-0000006,+0000036,-0000084,+0004142,-0000778,+0000490,-0002330,15:00:12.247370
0.288902,+0000003,-0000007,-0000018,+0000006,-0000084,+0004181,-0000778,+0000490,-0002330,15:00:12.247370
0.289129,+0000008,-0000020,+0000001,+0000031,-0000072,+0004176,-0000776,+0000492,-0002324,15:00:12.247370
0.289463,+0000011,-0000027,-0000005,+0000037,-0000078,+0004162,-0000776,+0000492,-0002324,15:00:12.247370
0.289663,+0000005,-0000003,-0000002,+0000024,-0000083,+0004145,-0000776,+0000492,-0002324,15:00:12.247370
0.289991,+0000014,-0000039,-0000019,+0000040,-0000077,+0004165,-0000752,+0000482,-0002339,15:00:12.247370
0.290329,+0000024,-0000028,+0000001,+0000032,-0000079,+0004165,-0000752,+0000482,-0002339,15:00:12.247370
0.290663,+0000003,-0000015,-0000008,+0000020,-0000088,+0004152,-0000752,+0000482,-0002339,15:00:12.247370
0.290992,+0000000,-0000004,-0000014,+0000021,-0000100,+0004145,-0000770,+0000468,-0002321,15:00:12.247370
0.291325,+0000000,-0000018,-0000015,+0000022,-0000103,+0004142,-0000770,+0000468,-0002321,15:00:12.247370
0.291660,+0000014,-0000019,+0000006,+0000022,-0000083,+0004167,-0000770,+0000468,-0002321,15:00:12.247370
0.291990,+0000016,-0000031,-0000010,+0000020,-0000091,+0004158,-0000770,+0000476,-0002335,15:00:12.247370
0.292322,+0000036,-0000036,-0000005,+0000031,-0000078,+0004139,-0000770,+0000476,-0002335,15:00:12.247370
0.292660,-0000006,-0000020,-0000011,+0000024,-0000082,+0004159,-0000770,+0000476,-0002335,15:00:12.247370
0.292988,-0000008,+0000003,+0000001,+0000022,-0000090,+0004134,-0000774,+0000466,-0002342,15:00:12.247370
0.293321,+0000017,-0000024,-0000010,+0000011,-0000080,+0004147,-0000774,+0000466,-0002342,15:00:12.247370
0.293660,+0000021,-0000028,-0000004,+0000016,-0000092,+0004135,-0000774,+0000466,-0002342,15:00:12.247370
0.293991,+0000013,-0000022,-0000013,+0000002,-0000091,+0004145,-0000780,+0000474,-0002312,15:00:12.247370
0.294320,+0000013,-0000018,-0000010,+0000024,-0000074,+0004152,-0000780,+0000474,-0002312,15:00:12.247370
0.294658,+0000003,-0000005,+0000006,+0000034,-0000066,+0004146,-0000780,+0000474,-0002312,15:00:12.247370
0.294986,+0000014,-0000021,-0000014,+0000023,-0000063,+0004156,-0000780,+0000470,-0002336,15:00:12.247370
0.295319,+0000013,-0000021,+0000000,+0000014,-0000071,+0004150,-0000780,+0000470,-0002336,15:00:12.247370
0.295657,+0000010,-0000016,-0000018,+0000021,-0000075,+0004149,-0000780,+0000470,-0002336,15:00:12.247370
0.295985,+0000027,-0000047,-0000014,+0000012,-0000068,+0004152,-0000770,+0000484,-0002362,15:00:12.247370
0.296318,+0000013,-0000035,-0000010,+0000019,-0000086,+0004137,-0000770,+0000484,-0002362,15:00:12.247370
0.296656,+0000008,-0000012,-0000007,+0000020,-0000099,+0004145,-0000770,+0000484,-0002362,15:00:12.247370
0.296984,+0000014,-0000020,-0000012,+0000049,-0000074,+0004134,-0000784,+0000480,-0002325,15:00:12.248354
0.297317,+0000011,-0000029,-0000008,+0000031,-0000080,+0004155,-0000784,+0000480,-0002325,15:00:12.248354
0.297655,+0000013,-0000030,-0000011,+0000034,-0000086,+0004134,-0000784,+0000480,-0002325,15:00:12.248354
0.297983,+0000027,-0000010,-0000014,+0000019,-0000081,+0004132,-0000764,+0000472,-0002345,15:00:12.248354
0.298316,+0000002,-0000015,-0000005,+0000009,-0000072,+0004124,-0000764,+0000472,-0002345,15:00:12.248354
0.298654,+0000013,-0000022,-0000005,+0000031,-0000075,+0004138,-0000764,+0000472,-0002345,15:00:12.248354
0.298982,-0000003,-0000018,-0000008,+0000029,-0000081,+0004149,-0000776,+0000484,-0002336,15:00:12.248354
0.299315,+0000030,-0000024,-0000003,+0000022,-0000084,+0004149,-0000776,+0000484,-0002336,15:00:12.248354
0.299651,+0000010,-0000027,-0000013,+0000037,-0000080,+0004159,-0000776,+0000484,-0002336,15:00:12.249353
0.299981,+0000024,-0000035,-0000023,+0000038,-0000094,+0004156,-0000760,+0000480,-0002333,15:00:12.249353
0.300314,+0000008,-0000013,+0000000,+0000026,-0000097,+0004141,-0000760,+0000480,-0002333,15:00:12.249353
0.300651,+0000008,-0000013,-0000008,+0000034,-0000088,+0004141,-0000760,+0000480,-0002333,15:00:12.249353
0.300980,+0000011,-0000008,-0000020,+0000026,-0000090,+0004150,-0000772,+0000496,-0002358,15:00:12.250354
0.301313,-0000001,-0000024,-0000018,+0000020,-0000073,+0004166,-0000772,+0000496,-0002358,15:00:12.250354
0.301650,+0000019,-0000030,-0000003,+0000007,-0000078,+0004155,-0000772,+0000496,-0002358,15:00:12.250354
0.301979,+0000020,-0000034,-0000016,+0000032,-0000070,+0004141,-0000782,+0000462,-0002342,15:00:12.250354
0.302312,+0000002,-0000021,-0000003,+0000024,-0000083,+0004144,-0000782,+0000462,-0002342,15:00:12.250354
0.302650,+0000006,-0000017,-0000001,+0000020,-0000107,+0004178,-0000782,+0000462,-0002342,15:00:12.250354
0.302978,+0000016,-0000013,-0000013,+0000007,-0000105,+0004151,-0000780,+0000468,-0002326,15:00:12.250354
0.303311,+0000027,-0000035,-0000013,+0000011,-0000083,+0004161,-0000780,+0000468,-0002326,15:00:12.250354
0.303648,+0000005,-0000036,-0000008,+0000015,-0000080,+0004162,-0000780,+0000468,-0002326,15:00:12.250354
0.303977,+0000036,-0000037,-0000010,-0000001,-0000068,+0004156,-0000776,+0000484,-0002324,15:00:12.251353
0.304310,-0000003,-0000015,-0000007,+0000011,-0000091,+0004172,-0000776,+0000484,-0002324,15:00:12.251353
0.304647,+0000011,-0000026,-0000020,+0000020,-0000069,+0004159,-0000776,+0000484,-0002324,15:00:12.251353
0.304976,+0000006,-0000027,-0000010,+0000021,-0000057,+0004156,-0000788,+0000480,-0002342,15:00:12.251353
0.305309,+0000010,-0000024,-0000006,+0000012,-0000098,+0004177,-0000788,+0000480,-0002342,15:00:12.251353
0.305642,+0000019,-0000037,-0000012,+0000019,-0000082,+0004168,-0000788,+0000480,-0002342,15:00:12.251353
0.305975,+0000019,-0000040,-0000013,+0000031,-0000091,+0004160,-0000770,+0000484,-0002326,15:00:12.251353
0.306308,+0000023,-0000029,-0000016,+0000033,-0000062,+0004166,-0000770,+0000484,-0002326,15:00:12.251353
0.306642,+0000008,-0000012,-0000008,+0000014,-0000064,+0004169,-0000770,+0000484,-0002326,15:00:12.251353
0.306974,+0000011,-0000021,-0000011,+0000025,-0000084,+0004145,-0000778,+0000472,-0002323,15:00:12.251353
0.307307,+0000017,-0000035,-0000006,+0000030,-0000094,+0004171,-0000778,+0000472,-0002323,15:00:12.251353
0.307642,+0000014,-0000016,+0000000,+0000028,-0000079,+0004153,-0000778,+0000472,-0002323,15:00:12.251353
0.307973,+0000027,-0000050,-0000013,+0000006,-0000071,+0004159,-0000786,+0000484,-0002344,15:00:12.251353
0.308306,+0000003,-0000014,+0000001,+0000030,-0000069,+0004160,-0000786,+0000484,-0002344,15:00:12.251353
0.308643,+0000011,+0000000,-0000008,+0000032,-0000071,+0004146,-0000786,+0000484,-0002344,15:00:12.251353
0.308972,+0000017,-0000035,-0000015,+0000020,-0000085,+0004148,-0000796,+0000446,-0002349,15:00:12.251353
0.309305,-0000003,-0000016,+0000001,+0000037,-0000077,+0004141,-0000796,+0000446,-0002349,15:00:12.251353
0.309642,+0000038,-0000036,-0000008,+0000021,-0000086,+0004139,-0000796,+0000446,-0002349,15:00:12.251353
0.309971,+0000011,-0000012,-0000005,+0000026,-0000098,+0004140,-0000778,+0000464,-0002338,15:00:12.251353
0.310304,+0000005,-0000009,-0000027,+0000014,-0000085,+0004135,-0000778,+0000464,-0002338,15:00:12.251353
0.310641,+0000006,-0000015,+0000006,+0000006,-0000076,+0004128,-0000778,+0000464,-0002338,15:00:12.251353
0.310970,+0000011,-0000016,-0000006,+0000016,-0000093,+0004138,-0000768,+0000478,-0002340,15:00:12.251353
0.311303,+0000021,-0000029,-0000010,+0000010,-0000082,+0004131,-0000768,+0000478,-0002340,15:00:12.251353
0.311649,+0000016,-0000024,-0000020,+0000024,-0000079,+0004138,-0000768,+0000478,-0002340,15:00:12.251353
0.311969,+0000000,-0000008,+0000000,+0000017,-0000083,+0004146,-0000768,+0000480,-0002360,15:00:12.251353
0.312573,-0000009,+0000003,-0000010,+0000024,-0000065,+0004130,-0000768,+0000480,-0002360,15:00:12.251353
0.312756,-0000009,-0000021,-0000005,+0000024,-0000086,+0004152,-0000768,+0000480,-0002360,15:00:12.251353
0.312968,+0000011,-0000021,-0000005,+0000024,-0000086,+0004159,-0000788,+0000476,-0002323,15:00:12.251353
0.313301,+0000006,-0000024,-0000003,+0000019,-0000066,+0004162,-0000788,+0000476,-0002323,15:00:12.251353
0.313647,+0000013,-0000040,-0000010,+0000024,-0000102,+0004155,-0000788,+0000476,-0002323,15:00:12.251353
0.313967,+0000013,-0000018,-0000013,+0000037,-0000071,+0004173,-0000784,+0000480,-0002354,15:00:12.251353
0.314300,-0000002,-0000007,-0000005,+0000032,-0000092,+0004147,-0000784,+0000480,-0002354,15:00:12.251353
0.314646,+0000011,-0000020,-0000005,+0000021,-0000095,+0004153,-0000784,+0000480,-0002354,15:00:12.251353
0.314966,-0000001,-0000005,-0000007,+0000007,-0000090,+0004147,-0000772,+0000484,-0002333,15:00:12.251353
0.315299,+0000019,-0000037,-0000004,+0000015,-0000103,+0004144,-0000772,+0000484,-0002333,15:00:12.252355
0.315644,+0000021,-0000032,-0000015,+0000016,-0000078,+0004150,-0000772,+0000484,-0002333,15:00:12.252355
0.315965,+0000022,-0000021,-0000008,+0000025,-0000084,+0004127,-0000776,+0000478,-0002336,15:00:12.252355
0.316298,+0000003,-0000006,+0000000,+0000009,-0000079,+0004154,-0000776,+0000478,-0002336,15:00:12.252355
0.316631,+0000014,-0000015,-0000007,+0000031,-0000091,+0004146,-0000776,+0000478,-0002336,15:00:12.252355
0.316964,+0000022,-0000027,-0000005,+0000021,-0000098,+0004157,-0000770,+0000482,-0002354,15:00:12.252355
0.317297,+0000016,-0000024,+0000003,+0000009,-0000082,+0004155,-0000770,+0000482,-0002354,15:00:12.252355
0.317630,+0000028,-0000048,-0000024,+0000023,-0000093,+0004141,-0000770,+0000482,-0002354,15:00:12.252355
0.317963,+0000013,-0000015,-0000010,+0000014,-0000084,+0004167,-0000784,+0000472,-0002337,15:00:12.252355
0.318296,+0000008,-0000019,+0000005,+0000015,-0000072,+0004157,-0000784,+0000472,-0002337,15:00:12.252355
0.318629,+0000002,-0000002,+0000002,+0000024,-0000084,+0004177,-0000784,+0000472,-0002337,15:00:12.252355
0.318962,+0000014,-0000031,-0000021,+0000010,-0000095,+0004166,-0000780,+0000470,-0002315,15:00:12.252355
0.319295,+0000020,-0000034,-0000016,+0000014,-0000076,+0004171,-0000780,+0000470,-0002315,15:00:12.252355
0.319628,+0000019,-0000026,-0000006,+0000028,-0000082,+0004170,-0000780,+0000470,-0002315,15:00:12.252355
0.319961,+0000010,-0000031,-0000010,+0000018,-0000085,+0004170,-0000782,+0000490,-0002335,15:00:12.252355
0.320294,-0000003,-0000010,-0000005,+0000023,-0000070,+0004167,-0000782,+0000490,-0002335,15:00:12.252355
0.320627,+0000011,-0000013,-0000008,+0000018,-0000073,+0004151,-0000782,+0000490,-0002335,15:00:12.252355
0.320960,+0000025,-0000037,+0000003,+0000023,-0000098,+0004148,-0000774,+0000474,-0002329,15:00:12.252355
0.321293,+0000013,-0000032,-0000012,+0000053,-0000076,+0004168,-0000774,+0000474,-0002329,15:00:12.252355
0.321626,+0000019,-0000032,-0000019,+0000015,-0000099,+0004134,-0000774,+0000474,-0002329,15:00:12.252355
0.321959,+0000008,-0000013,-0000008,+0000023,-0000089,+0004149,-0000784,+0000488,-0002339,15:00:12.252355
0.322292,+0000003,-0000015,+0000000,+0000020,-0000055,+0004142,-0000784,+0000488,-0002339,15:00:12.252355
0.322625,+0000017,-0000034,-0000010,+0000017,-0000074,+0004136,-0000784,+0000488,-0002339,15:00:12.252355
0.322958,-0000003,-0000015,+0000003,+0000033,-0000072,+0004167,-0000778,+0000484,-0002314,15:00:12.252355
0.323291,+0000032,-0000050,-0000005,+0000021,-0000064,+0004144,-0000778,+0000484,-0002314,15:00:12.252355
0.323624,+0000017,-0000012,+0000001,+0000023,-0000088,+0004132,-0000778,+0000484,-0002314,15:00:12.252355
0.323957,-0000001,-0000010,-0000015,+0000033,-0000082,+0004119,-0000798,+0000478,-0002310,15:00:12.252355
0.324290,+0000003,-0000018,-0000007,+0000020,-0000100,+0004150,-0000798,+0000478,-0002310,15:00:12.252355
0.324623,+0000016,-0000021,-0000010,+0000024,-0000074,+0004153,-0000798,+0000478,-0002310,15:00:12.252355
0.324956,+0000019,-0000037,-0000013,+0000014,-0000083,+0004149,-0000760,+0000484,-0002316,15:00:12.252355
0.325289,+0000019,-0000016,-0000010,+0000015,-0000070,+0004145,-0000760,+0000484,-0002316,15:00:12.252355
0.325622,-0000002,-0000026,-0000013,+0000020,-0000069,+0004151,-0000760,+0000484,-0002316,15:00:12.252355
0.325955,+0000020,-0000016,-0000010,+0000029,-0000081,+0004146,-0000784,+0000494,-0002333,15:00:12.252355
0.326288,-0000003,-0000004,-0000002,+0000026,-0000076,+0004146,-0000784,+0000494,-0002333,15:00:12.252355
0.326621,+0000017,-0000037,-0000011,+0000011,-0000062,+0004150,-0000784,+0000494,-0002333,15:00:12.252355
0.326954,+0000025,-0000037,-0000012,+0000028,-0000069,+0004145,-0000766,+0000492,-0002336,15:00:12.252355
0.327287,+0000017,-0000026,-0000001,+0000036,-0000089,+0004141,-0000766,+0000492,-0002336,15:00:12.252355
0.327620,+0000016,-0000031,-0000009,+0000019,-0000085,+0004123,-0000766,+0000492,-0002336,15:00:12.252355
0.327953,+0000008,-0000018,-0000009,+0000011,-0000084,+0004138,-0000780,+0000480,-0002305,15:00:12.252355
0.328286,-0000002,-0000006,-0000021,+0000012,-0000080,+0004160,-0000780,+0000480,-0002305,15:00:12.252355
0.328619,+0000018,-0000028,-0000010,+0000022,-0000090,+0004135,-0000780,+0000480,-0002305,15:00:12.252355
0.328952,+0000017,-0000043,-0000008,+0000013,-0000100,+0004159,-0000772,+0000490,-0002366,15:00:12.252355
0.329285,+0000035,-0000034,-0000027,+0000032,-0000068,+0004153,-0000772,+0000490,-0002366,15:00:12.252355
0.329618,+0000013,-0000022,-0000007,+0000039,-0000081,+0004153,-0000772,+0000490,-0002366,15:00:12.252355
0.329951,-0000003,-0000008,+0000003,+0000044,-0000084,+0004137,-0000770,+0000468,-0002334,15:00:12.252355
0.330284,+0000025,-0000028,-0000021,+0000025,-0000100,+0004137,-0000770,+0000468,-0002334,15:00:12.252355
0.330617,+0000016,-0000021,+0000001,+0000027,-0000086,+0004154,-0000770,+0000468,-0002334,15:00:12.252355
0.330950,+0000030,-0000034,-0000021,+0000016,-0000080,+0004151,-0000776,+0000482,-0002340,15:00:12.252355
0.331283,+0000016,-0000045,-0000006,+0000008,-0000078,+0004153,-0000776,+0000482,-0002340,15:00:12.252355
0.331616,+0000013,-0000029,-0000016,+0000027,-0000075,+0004161,-0000776,+0000482,-0002340,15:00:12.252355
0.331949,+0000007,+0000000,-0000003,+0000013,-0000060,+0004168,-0000770,+0000492,-0002345,15:00:12.252355
0.332282,+0000009,+0000006,+0000000,+0000031,-0000077,+0004141,-0000770,+0000492,-0002345,15:00:12.252355
0.332615,+0000021,-0000032,-0000019,+0000011,-0000098,+0004181,-0000770,+0000492,-0002345,15:00:12.252355
0.332948,+0000011,-0000024,+0000000,+0000024,-0000077,+0004142,-0000780,+0000486,-0002348,15:00:12.252355
0.333281,+0000030,-0000045,-0000003,+0000025,-0000074,+0004165,-0000780,+0000486,-0002348,15:00:12.252355
0.333614,+0000010,-0000024,-0000021,+0000026,-0000088,+0004164,-0000780,+0000486,-0002348,15:00:12.252355
0.333947,+0000016,-0000007,-0000013,+0000015,-0000068,+0004149,-0000772,+0000486,-0002328,15:00:12.252355
0.334280,-0000003,-0000010,+0000004,+0000017,-0000065,+0004164,-0000772,+0000486,-0002328,15:00:12.252355
0.334613,+0000035,-0000043,-0000006,+0000027,-0000077,+0004150,-0000772,+0000486,-0002328,15:00:12.252355
0.334946,+0000018,-0000026,-0000008,+0000037,-0000092,+0004163,-0000762,+0000486,-0002315,15:00:12.252355
0.335279,+0000017,-0000040,-0000008,+0000018,-0000098,+0004164,-0000762,+0000486,-0002315,15:00:12.252355
0.335612,+0000013,-0000019,-0000003,+0000032,-0000088,+0004156,-0000762,+0000486,-0002315,15:00:12.252355
0.335945,+0000003,-0000027,+0000000,+0000023,-0000077,+0004162,-0000748,+0000466,-0002327,15:00:12.270630
0.336281,+0000021,-0000012,-0000010,+0000017,-0000068,+0004147,-0000748,+0000466,-0002327,15:00:12.270630
0.336611,+0000002,-0000028,-0000005,+0000020,-0000072,+0004145,-0000748,+0000466,-0002327,15:00:12.270630
0.336950,+0000030,-0000035,-0000020,+0000022,-0000071,+0004140,-0000772,+0000488,-0002343,15:00:12.270630
0.337496,-0000001,+0000008,+0000011,+0000023,-0000084,+0004143,-0000772,+0000488,-0002343,15:00:12.270630
0.337693,+0000011,-0000029,-0000016,+0000023,-0000084,+0004143,-0000772,+0000488,-0002343,15:00:12.270630
0.338047,+0000010,-0000010,-0000011,+0000018,-0000067,+0004149,-0000780,+0000492,-0002340,15:00:12.272921
0.338499,+0000010,-0000013,+0000003,+0000043,-0000094,+0004154,-0000780,+0000492,-0002340,15:00:12.272921
0.338666,+0000010,-0000016,-0000013,+0000033,-0000088,+0004134,-0000780,+0000492,-0002340,15:00:12.272921
0.338949,+0000005,-0000031,-0000007,+0000023,-0000061,+0004147,-0000774,+0000492,-0002340,15:00:12.272921
0.339278,+0000021,-0000024,-0000011,+0000025,-0000098,+0004140,-0000774,+0000492,-0002340,15:00:12.272921
0.339614,+0000018,-0000021,-0000003,+0000015,-0000079,+0004142,-0000774,+0000492,-0002340,15:00:12.272921
0.339941,+0000012,-0000029,-0000013,+0000013,-0000075,+0004147,-0000776,+0000468,-0002320,15:00:12.272921
0.340274,+0000014,-0000034,+0000004,+0000035,-0000091,+0004148,-0000776,+0000468,-0002320,15:00:12.273934
0.340607,+0000027,-0000050,-0000019,+0000024,-0000095,+0004155,-0000776,+0000468,-0002320,15:00:12.273934
0.340940,+0000024,-0000034,-0000005,+0000038,-0000080,+0004154,-0000774,+0000472,-0002338,15:00:12.273934
0.341273,+0000000,-0000018,-0000006,+0000022,-0000090,+0004156,-0000774,+0000472,-0002338,15:00:12.273934
0.341606,+0000020,-0000020,-0000018,+0000039,-0000096,+0004139,-0000774,+0000472,-0002338,15:00:12.273934
0.341939,-0000013,+0000000,+0000003,+0000019,-0000085,+0004160,-0000780,+0000468,-0002342,15:00:12.273934
0.342272,+0000022,-0000015,+0000006,+0000023,-0000078,+0004146,-0000780,+0000468,-0002342,15:00:12.273934
0.342605,+0000022,-0000032,-0000007,+0000022,-0000066,+0004124,-0000780,+0000468,-0002342,15:00:12.273934
0.342938,+0000026,-0000040,-0000021,+0000012,-0000079,+0004122,-0000774,+0000474,-0002352,15:00:12.273934
0.343271,+0000008,-0000013,-0000008,+0000035,-0000076,+0004151,-0000774,+0000474,-0002352,15:00:12.273934
0.343604,+0000016,-0000016,-0000010,+0000029,-0000078,+0004162,-0000774,+0000474,-0002352,15:00:12.273934
0.343937,+0000007,-0000024,-0000021,+0000012,-0000093,+0004146,-0000778,+0000494,-0002324,15:00:12.273934
0.344270,+0000019,-0000020,-0000016,+0000017,-0000096,+0004144,-0000778,+0000494,-0002324,15:00:12.273934
0.344603,+0000014,-0000035,-0000002,+0000037,-0000098,+0004139,-0000778,+0000494,-0002324,15:00:12.273934
0.344936,+0000022,-0000037,-0000010,+0000032,-0000086,+0004141,-0000770,+0000464,-0002318,15:00:12.273934
0.345269,+0000020,-0000028,-0000008,+0000011,-0000071,+0004148,-0000770,+0000464,-0002318,15:00:12.273934
0.345602,+0000006,-0000028,-0000015,+0000013,-0000075,+0004166,-0000770,+0000464,-0002318,15:00:12.273934
0.345935,+0000000,+0000004,-0000005,+0000038,-0000082,+0004159,-0000790,+0000466,-0002330,15:00:12.273934
0.346268,+0000025,-0000032,-0000015,+0000016,-0000081,+0004136,-0000790,+0000466,-0002330,15:00:12.273934
0.346601,+0000014,-0000034,-0000002,+0000004,-0000082,+0004156,-0000790,+0000466,-0002330,15:00:12.273934
0.346934,+0000029,-0000051,-0000020,+0000011,-0000094,+0004170,-0000778,+0000482,-0002339,15:00:12.273934
0.347267,+0000017,-0000010,-0000008,+0000014,-0000101,+0004164,-0000778,+0000482,-0002339,15:00:12.273934
0.347600,-0000001,-0000002,+0000009,+0000019,-0000083,+0004172,-0000778,+0000482,-0002339,15:00:12.273934
0.347934,+0000006,-0000020,-0000021,+0000023,-0000089,+0004150,-0000776,+0000482,-0002315,15:00:12.273934
0.348266,+0000022,-0000023,-0000007,+0000026,-0000086,+0004150,-0000776,+0000482,-0002315,15:00:12.273934
0.348599,+0000010,-0000043,-0000007,+0000017,-0000066,+0004157,-0000776,+0000482,-0002315,15:00:12.273934
0.348932,+0000014,-0000029,-0000010,+0000011,-0000084,+0004156,-0000782,+0000480,-0002327,15:00:12.273934
0.349265,+0000013,-0000019,-0000012,+0000005,-0000083,+0004151,-0000782,+0000480,-0002327,15:00:12.273934
0.349598,+0000005,-0000012,-0000006,+0000021,-0000065,+0004158,-0000782,+0000480,-0002327,15:00:12.273934
0.349931,+0000013,-0000017,-0000010,+0000017,-0000081,+0004152,-0000772,+0000476,-0002326,15:00:12.273934
0.350264,+0000022,-0000034,-0000014,+0000027,-0000075,+0004145,-0000772,+0000476,-0002326,15:00:12.273934
0.350597,+0000030,-0000044,-0000016,+0000024,-0000071,+0004155,-0000772,+0000476,-0002326,15:00:12.273934
0.350930,+0000016,-0000024,-0000019,+0000029,-0000076,+0004131,-0000786,+0000476,-0002346,15:00:12.273934
0.351263,+0000003,-0000012,-0000010,+0000031,-0000078,+0004150,-0000786,+0000476,-0002346,15:00:12.273934
0.351596,+0000006,-0000012,-0000005,+0000027,-0000080,+0004143,-0000786,+0000476,-0002346,15:00:12.273934
0.351929,+0000010,-0000024,-0000005,+0000012,-0000084,+0004152,-0000794,+0000492,-0002341,15:00:12.273934
0.352262,+0000021,-0000027,-0000008,+0000018,-0000075,+0004137,-0000794,+0000492,-0002341,15:00:12.273934
0.352595,+0000024,-0000026,-0000013,+0000017,-0000088,+0004161,-0000794,+0000492,-0002341,15:00:12.273934
0.352928,+0000021,-0000007,+0000009,+0000007,-0000096,+0004148,-0000778,+0000462,-0002335,15:00:12.273934
0.353261,+0000007,-0000010,-0000011,+0000003,-0000088,+0004162,-0000778,+0000462,-0002335,15:00:12.273934
0.353624,+0000019,-0000016,-0000010,+0000019,-0000092,+0004162,-0000778,+0000462,-0002335,15:00:12.273934
0.353927,-0000002,-0000019,-0000005,+0000042,-0000079,+0004153,-0000788,+0000482,-0002342,15:00:12.273934
0.354260,+0000003,+0000003,-0000018,+0000010,-0000076,+0004141,-0000788,+0000482,-0002342,15:00:12.273934
0.354593,+0000019,-0000031,-0000008,+0000015,-0000072,+0004127,-0000788,+0000482,-0002342,15:00:12.273934
0.354926,+0000013,-0000016,-0000002,+0000020,-0000083,+0004149,-0000772,+0000464,-0002336,15:00:12.273934
0.355259,+0000005,-0000029,-0000030,+0000036,-0000077,+0004138,-0000772,+0000464,-0002336,15:00:12.273934
0.355592,+0000011,+0000001,+0000003,+0000003,-0000104,+0004142,-0000772,+0000464,-0002336,15:00:12.273934
0.355925,+0000025,-0000032,+0000003,+0000026,-0000065,+0004156,-0000772,+0000482,-0002319,15:00:12.273934
0.356258,+0000034,-0000042,-0000014,+0000024,-0000068,+0004152,-0000772,+0000482,-0002319,15:00:12.273934
0.356591,+0000022,-0000026,-0000007,+0000009,-0000084,+0004160,-0000772,+0000482,-0002319,15:00:12.273934
0.356924,+0000008,-0000032,-0000007,+0000020,-0000076,+0004176,-0000774,+0000482,-0002334,15:00:12.273934
0.357257,+0000013,-0000023,-0000010,+0000022,-0000082,+0004165,-0000774,+0000482,-0002334,15:00:12.273934
0.357590,-0000001,-0000004,+0000008,+0000023,-0000076,+0004142,-0000774,+0000482,-0002334,15:00:12.273934
0.357923,+0000003,-0000018,-0000007,+0000037,-0000100,+0004178,-0000754,+0000478,-0002339,15:00:12.273934
0.358256,+0000018,-0000031,-0000011,+0000018,-0000083,+0004167,-0000754,+0000478,-0002339,15:00:12.273934
0.358589,+0000027,-0000039,-0000012,+0000015,-0000078,+0004160,-0000754,+0000478,-0002339,15:00:12.273934
0.358924,+0000009,-0000020,-0000010,+0000003,-0000078,+0004158,-0000758,+0000472,-0002322,15:00:12.273934
0.359255,+0000007,-0000018,-0000018,+0000058,-0000093,+0004150,-0000758,+0000472,-0002322,15:00:12.273934
0.359588,+0000006,-0000013,+0000001,+0000023,-0000068,+0004143,-0000758,+0000472,-0002322,15:00:12.273934
0.359921,+0000013,-0000026,-0000011,+0000009,-0000084,+0004146,-0000786,+0000488,-0002338,15:00:12.273934
0.360259,+0000021,-0000031,-0000005,+0000036,-0000064,+0004159,-0000786,+0000488,-0002338,15:00:12.274922
0.360596,+0000024,-0000031,-0000015,+0000026,-0000074,+0004140,-0000786,+0000488,-0002338,15:00:12.274922
0.360923,+0000003,-0000021,-0000013,+0000010,-0000060,+0004164,-0000784,+0000488,-0002354,15:00:12.274922
0.361254,+0000013,-0000010,-0000010,+0000004,-0000071,+0004158,-0000784,+0000488,-0002354,15:00:12.274922
0.361587,+0000010,-0000029,-0000004,+0000020,-0000058,+0004139,-0000784,+0000488,-0002354,15:00:12.274922
0.361919,+0000022,-0000029,-0000008,+0000034,-0000097,+0004141,-0000778,+0000484,-0002342,15:00:12.274922
0.362253,+0000014,-0000037,-0000016,+0000026,-0000074,+0004157,-0000778,+0000484,-0002342,15:00:12.274922
0.362585,+0000036,-0000045,-0000005,+0000031,-0000075,+0004153,-0000778,+0000484,-0002342,15:00:12.274922
0.362918,+0000013,-0000031,-0000013,+0000016,-0000090,+0004147,-0000778,+0000494,-0002321,15:00:12.274922
0.363252,+0000003,-0000010,-0000013,+0000008,-0000070,+0004151,-0000778,+0000494,-0002321,15:00:12.274922
0.363586,+0000016,-0000026,-0000005,+0000027,-0000088,+0004139,-0000778,+0000494,-0002321,15:00:12.274922
0.363918,+0000011,-0000023,-0000007,+0000032,-0000078,+0004141,-0000770,+0000492,-0002334,15:00:12.274922
0.364252,+0000020,-0000037,-0000010,+0000020,-0000094,+0004153,-0000770,+0000492,-0002334,15:00:12.274922
0.364583,+0000027,-0000021,-0000008,+0000020,-0000094,+0004150,-0000770,+0000492,-0002334,15:00:12.274922
0.364916,+0000002,-0000015,-0000013,+0000012,-0000082,+0004144,-0000776,+0000506,-0002350,15:00:12.274922
0.365249,-0000002,-0000017,+0000003,+0000019,-0000081,+0004143,-0000776,+0000506,-0002350,15:00:12.274922
0.365582,+0000009,-0000018,-0000022,+0000017,-0000074,+0004130,-0000776,+0000506,-0002350,15:00:12.274922
0.365915,+0000024,-0000034,-0000011,+0000029,-0000087,+0004168,-0000772,+0000490,-0002342,15:00:12.274922
0.366248,+0000016,-0000021,-0000013,+0000014,-0000068,+0004145,-0000772,+0000490,-0002342,15:00:12.274922
0.366581,+0000016,-0000004,-0000013,+0000018,-0000086,+0004158,-0000772,+0000490,-0002342,15:00:12.274922
0.366914,+0000003,-0000012,-0000006,+0000025,-0000058,+0004155,-0000782,+0000482,-0002300,15:00:12.274922
0.367247,+0000008,-0000019,-0000010,+0000023,-0000082,+0004144,-0000782,+0000482,-0002300,15:00:12.274922
0.367580,+0000007,-0000013,+0000004,+0000013,-0000067,+0004153,-0000782,+0000482,-0002300,15:00:12.274922
0.367913,+0000028,-0000034,-0000001,+0000027,-0000073,+0004164,-0000778,+0000492,-0002335,15:00:12.274922
0.368246,+0000021,-0000034,-0000023,+0000034,-0000101,+0004132,-0000778,+0000492,-0002335,15:00:12.274922
0.368579,+0000000,-0000021,-0000010,+0000011,-0000068,+0004142,-0000778,+0000492,-0002335,15:00:12.274922
0.368912,+0000010,-0000018,-0000008,+0000014,-0000062,+0004153,-0000780,+0000468,-0002336,15:00:12.274922
0.369245,+0000010,-0000005,-0000015,+0000019,-0000083,+0004160,-0000780,+0000468,-0002336,15:00:12.274922
0.369578,+0000005,-0000027,-0000008,+0000030,-0000057,+0004139,-0000780,+0000468,-0002336,15:00:12.274922
0.369911,+0000014,-0000043,-0000008,+0000023,-0000094,+0004146,-0000784,+0000496,-0002338,15:00:12.274922
0.370244,+0000013,-0000020,-0000008,+0000016,-0000066,+0004145,-0000784,+0000496,-0002338,15:00:12.274922
0.370577,+0000025,-0000038,-0000021,+0000026,-0000084,+0004130,-0000784,+0000496,-0002338,15:00:12.274922
0.370910,+0000002,+0000000,-0000002,+0000037,-0000082,+0004148,-0000778,+0000482,-0002324,15:00:12.274922
0.371243,+0000002,-0000020,-0000007,+0000020,-0000106,+0004150,-0000778,+0000482,-0002324,15:00:12.274922
0.371576,+0000001,-0000019,-0000002,+0000025,-0000111,+0004124,-0000778,+0000482,-0002324,15:00:12.274922
0.371909,+0000025,-0000037,-0000004,+0000014,-0000068,+0004143,-0000786,+0000474,-0002326,15:00:12.274922
0.372242,+0000030,-0000026,-0000012,+0000009,-0000080,+0004155,-0000786,+0000474,-0002326,15:00:12.274922
0.372575,-0000001,-0000031,-0000005,+0000030,-0000070,+0004146,-0000786,+0000474,-0002326,15:00:12.274922
0.372908,+0000016,-0000018,-0000015,+0000017,-0000077,+0004154,-0000782,+0000486,-0002352,15:00:12.274922
0.373241,+0000007,-0000018,-0000006,+0000033,-0000078,+0004165,-0000782,+0000486,-0002352,15:00:12.274922
0.373574,+0000018,-0000035,-0000002,+0000044,-0000086,+0004156,-0000782,+0000486,-0002352,15:00:12.274922
0.373907,+0000014,-0000031,-0000010,+0000024,-0000066,+0004170,-0000782,+0000494,-0002312,15:00:12.274922
0.374240,+0000024,-0000037,-0000021,+0000015,-0000071,+0004169,-0000782,+0000494,-0002312,15:00:12.274922
0.374573,+0000018,-0000029,-0000010,+0000026,-0000078,+0004155,-0000782,+0000494,-0002312,15:00:12.274922
0.374906,+0000019,-0000002,-0000016,+0000037,-0000076,+0004143,-0000768,+0000498,-0002304,15:00:12.274922
0.375239,+0000005,-0000029,+0000003,+0000019,-0000075,+0004171,-0000768,+0000498,-0002304,15:00:12.274922
0.375572,+0000019,-0000029,-0000011,+0000037,-0000076,+0004139,-0000768,+0000498,-0002304,15:00:12.274922
0.375905,+0000022,-0000038,-0000010,+0000022,-0000074,+0004126,-0000778,+0000486,-0002319,15:00:12.274922
0.376238,+0000032,-0000030,+0000000,+0000010,-0000089,+0004125,-0000778,+0000486,-0002319,15:00:12.274922
0.376571,+0000002,-0000010,-0000010,+0000027,-0000084,+0004152,-0000778,+0000486,-0002319,15:00:12.274922
0.376904,+0000017,-0000013,-0000002,+0000004,-0000067,+0004161,-0000760,+0000484,-0002318,15:00:12.274922
