===BEGIN_METADATA===
"This CSV contains gyroscope, accelerometer, and magnetometer data synced with the test named below."
Test Name: 2026-07-07_145747_01,yyyy-mm-dd_hhmmss_{probe#/nano_id}
Calibrations: (not implemented yet)
===END_METADATA===
===BEGIN_DATA===
Time (sec),Gyro X,Gyro Y,Gyro Z,Accel X,Accel Y,Accel Z,Mag X,Mag Y,Mag Z,Processed_Time
0.000286,-0000003,+0000006,-0000005,+0000039,-0000088,+0004145,-0000644,+0000302,-0002506,14:57:48.588016
0.000618,+0000006,-0000027,-0000005,+0000047,-0000096,+0004153,-0000792,+0000452,-0002303,14:57:48.588016
0.000951,+0000019,-0000024,+0000000,+0000050,-0000104,+0004156,-0000792,+0000452,-0002303,14:57:48.588016
0.001284,+0000010,-0000021,-0000018,+0000070,-0000097,+0004150,-0000792,+0000452,-0002303,14:57:48.588016
0.001617,-0000007,-0000015,-0000008,+0000049,-0000082,+0004152,-0000786,+0000476,-0002313,14:57:48.588016
0.001950,+0000000,-0000001,-0000004,+0000040,-0000087,+0004147,-0000786,+0000476,-0002313,14:57:48.588016
0.002283,+0000024,-0000047,-0000014,+0000042,-0000089,+0004166,-0000786,+0000476,-0002313,14:57:48.588016
0.002616,+0000011,-0000029,-0000010,+0000055,-0000095,+0004148,-0000782,+0000466,-0002340,14:57:48.588016
0.002949,+0000019,-0000029,-0000007,+0000053,-0000087,+0004140,-0000782,+0000466,-0002340,14:57:48.588016
0.003282,+0000005,-0000014,-0000007,+0000054,-0000085,+0004158,-0000782,+0000466,-0002340,14:57:48.588016
0.003615,+0000006,-0000019,-0000010,+0000059,-0000097,+0004163,-0000790,+0000462,-0002287,14:57:48.589031
0.003948,+0000013,-0000015,-0000003,+0000054,-0000099,+0004160,-0000790,+0000462,-0002287,14:57:48.589031
0.004281,+0000027,-0000047,-0000013,+0000035,-0000083,+0004141,-0000790,+0000462,-0002287,14:57:48.589031
0.004614,+0000022,-0000023,+0000000,+0000054,-0000092,+0004161,-0000776,+0000472,-0002307,14:57:48.589031
0.004947,+0000014,-0000016,-0000007,+0000052,-0000099,+0004174,-0000776,+0000472,-0002307,14:57:48.589031
0.005280,+0000008,-0000010,-0000007,+0000064,-0000117,+0004155,-0000776,+0000472,-0002307,14:57:48.589031
0.005613,+0000011,-0000013,-0000018,+0000050,-0000091,+0004146,-0000784,+0000484,-0002297,14:57:48.589031
0.005946,+0000016,-0000019,+0000000,+0000064,-0000088,+0004138,-0000784,+0000484,-0002297,14:57:48.589031
0.006279,+0000011,-0000029,-0000011,+0000046,-0000106,+0004154,-0000784,+0000484,-0002297,14:57:48.589031
0.006612,+0000036,-0000034,-0000010,+0000050,-0000071,+0004133,-0000790,+0000492,-0002309,14:57:48.589031
0.006945,+0000019,-0000032,-0000005,+0000057,-0000074,+0004150,-0000790,+0000492,-0002309,14:57:48.589031
0.007278,+0000010,-0000010,-0000014,+0000043,-0000085,+0004162,-0000790,+0000492,-0002309,14:57:48.589031
0.007611,+0000005,-0000015,-0000004,+0000060,-0000076,+0004161,-0000792,+0000482,-0002305,14:57:48.589031
0.007944,+0000005,-0000021,-0000011,+0000053,-0000101,+0004155,-0000792,+0000482,-0002305,14:57:48.589031
0.008277,+0000024,-0000046,-0000008,+0000030,-0000094,+0004132,-0000792,+0000482,-0002305,14:57:48.589031
0.008610,+0000022,-0000018,-0000008,+0000046,-0000084,+0004146,-0000776,+0000488,-0002321,14:57:48.589031
0.008943,+0000014,-0000040,-0000012,+0000039,-0000084,+0004138,-0000776,+0000488,-0002321,14:57:48.589031
0.009276,+0000008,-0000024,-0000012,+0000049,-0000091,+0004137,-0000776,+0000488,-0002321,14:57:48.589031
0.009611,+0000008,-0000007,+0000015,+0000045,-0000078,+0004145,-0000802,+0000482,-0002312,14:57:48.624041
0.009943,+0000016,-0000024,+0000006,+0000057,-0000084,+0004138,-0000802,+0000482,-0002312,14:57:48.624041
0.010283,+0000024,-0000023,-0000012,+0000032,-0000086,+0004154,-0000802,+0000482,-0002312,14:57:48.624041
0.010741,+0000017,-0000040,+0000004,+0000047,-0000073,+0004150,-0000770,+0000470,-0002314,14:57:48.624041
0.011012,-0000001,-0000019,+0000004,+0000047,-0000073,+0004166,-0000770,+0000470,-0002314,14:57:48.624041
0.011275,+0000016,-0000031,-0000015,+0000023,-0000084,+0004166,-0000770,+0000470,-0002314,14:57:48.624041
0.011610,+0000021,-0000026,+0000005,+0000054,-0000084,+0004175,-0000782,+0000476,-0002302,14:57:48.624041
0.011941,+0000008,-0000026,-0000002,+0000057,-0000104,+0004160,-0000782,+0000476,-0002302,14:57:48.624041
0.012273,+0000020,-0000036,-0000013,+0000051,-0000070,+0004146,-0000782,+0000476,-0002302,14:57:48.624041
0.012607,+0000021,-0000029,-0000007,+0000051,-0000072,+0004152,-0000782,+0000480,-0002318,14:57:48.625042
0.012941,+0000013,-0000027,-0000011,+0000071,-0000079,+0004145,-0000782,+0000480,-0002318,14:57:48.625042
0.013273,+0000016,-0000035,-0000013,+0000046,-0000074,+0004145,-0000782,+0000480,-0002318,14:57:48.625042
0.013606,-0000002,-0000018,-0000004,+0000065,-0000064,+0004164,-0000776,+0000470,-0002329,14:57:48.625042
0.013939,+0000011,-0000010,-0000009,+0000054,-0000086,+0004156,-0000776,+0000470,-0002329,14:57:48.625042
0.014271,+0000021,-0000034,-0000008,+0000041,-0000079,+0004160,-0000776,+0000470,-0002329,14:57:48.625042
0.014604,+0000014,-0000039,-0000008,+0000036,-0000100,+0004164,-0000792,+0000478,-0002311,14:57:48.625042
0.014939,+0000022,-0000037,-0000018,+0000032,-0000089,+0004161,-0000792,+0000478,-0002311,14:57:48.625042
0.015270,-0000003,-0000013,+0000008,+0000057,-0000082,+0004164,-0000792,+0000478,-0002311,14:57:48.625042
0.015603,+0000019,-0000015,-0000011,+0000042,-0000109,+0004159,-0000798,+0000484,-0002318,14:57:48.628046
0.015936,+0000008,-0000020,+0000011,+0000042,-0000103,+0004154,-0000798,+0000484,-0002318,14:57:48.628046
0.016269,+0000027,-0000037,-0000016,+0000044,-0000100,+0004169,-0000798,+0000484,-0002318,14:57:48.628046
0.016602,+0000025,-0000045,+0000000,+0000038,-0000062,+0004140,-0000784,+0000460,-0002328,14:57:48.628046
0.016935,+0000013,-0000016,-0000007,+0000058,-0000079,+0004140,-0000784,+0000460,-0002328,14:57:48.628046
0.017268,+0000008,-0000014,-0000005,+0000073,-0000115,+0004138,-0000784,+0000460,-0002328,14:57:48.628046
0.017601,+0000005,-0000020,-0000011,+0000054,-0000091,+0004139,-0000780,+0000456,-0002320,14:57:48.628046
0.017934,+0000017,-0000031,-0000002,+0000015,-0000091,+0004164,-0000780,+0000456,-0002320,14:57:48.628046
0.018267,+0000014,-0000032,-0000013,+0000036,-0000077,+0004144,-0000780,+0000456,-0002320,14:57:48.628046
0.018600,+0000016,-0000007,-0000008,+0000052,-0000073,+0004152,-0000788,+0000478,-0002298,14:57:48.628046
0.018933,+0000008,-0000028,-0000008,+0000038,-0000068,+0004169,-0000788,+0000478,-0002298,14:57:48.628046
0.019266,+0000013,-0000011,-0000008,+0000064,-0000097,+0004142,-0000788,+0000478,-0002298,14:57:48.628046
0.019599,+0000008,-0000016,-0000004,+0000055,-0000078,+0004145,-0000780,+0000482,-0002313,14:57:48.628046
0.019932,+0000019,-0000029,-0000014,+0000043,-0000085,+0004146,-0000780,+0000482,-0002313,14:57:48.628046
0.020265,+0000024,-0000042,-0000013,+0000052,-0000085,+0004151,-0000780,+0000482,-0002313,14:57:48.628046
0.020598,+0000013,-0000019,-0000014,+0000048,-0000086,+0004148,-0000796,+0000474,-0002304,14:57:48.628046
0.020931,+0000016,-0000026,-0000003,+0000046,-0000103,+0004152,-0000796,+0000474,-0002304,14:57:48.628046
0.021264,-0000011,-0000012,-0000013,+0000051,-0000093,+0004162,-0000796,+0000474,-0002304,14:57:48.628046
0.021597,+0000007,-0000020,+0000003,+0000053,-0000077,+0004168,-0000798,+0000478,-0002311,14:57:48.628046
0.021930,+0000021,-0000024,-0000013,+0000052,-0000092,+0004152,-0000798,+0000478,-0002311,14:57:48.628046
0.022263,+0000003,-0000028,-0000012,+0000061,-0000089,+0004161,-0000798,+0000478,-0002311,14:57:48.628046
0.022596,+0000024,-0000027,-0000008,+0000057,-0000087,+0004167,-0000794,+0000454,-0002304,14:57:48.628046
0.022929,+0000015,-0000019,-0000010,+0000064,-0000097,+0004151,-0000794,+0000454,-0002304,14:57:48.628046
0.023262,+0000002,-0000002,+0000000,+0000047,-0000067,+0004154,-0000794,+0000454,-0002304,14:57:48.628046
0.023595,+0000019,-0000027,+0000012,+0000027,-0000090,+0004142,-0000780,+0000464,-0002331,14:57:48.628046
0.023928,+0000025,-0000037,-0000023,+0000062,-0000090,+0004153,-0000780,+0000464,-0002331,14:57:48.628046
0.024261,+0000022,-0000037,-0000013,+0000046,-0000096,+0004140,-0000780,+0000464,-0002331,14:57:48.628046
0.024594,+0000014,-0000015,+0000004,+0000053,-0000092,+0004145,-0000768,+0000470,-0002333,14:57:48.628046
0.024927,+0000005,-0000019,-0000018,+0000049,-0000095,+0004134,-0000768,+0000470,-0002333,14:57:48.628046
0.025260,+0000000,-0000007,+0000001,+0000052,-0000120,+0004148,-0000768,+0000470,-0002333,14:57:48.628046
0.025593,+0000004,-0000016,-0000005,+0000047,-0000089,+0004147,-0000794,+0000480,-0002320,14:57:48.628046
0.025926,+0000014,-0000035,-0000004,+0000059,-0000092,+0004145,-0000794,+0000480,-0002320,14:57:48.628046
0.026259,+0000024,-0000037,-0000003,+0000053,-0000103,+0004144,-0000794,+0000480,-0002320,14:57:48.628046
0.026592,+0000016,-0000029,-0000011,+0000058,-0000089,+0004149,-0000784,+0000478,-0002311,14:57:48.628046
0.026925,+0000003,-0000012,+0000001,+0000047,-0000087,+0004168,-0000784,+0000478,-0002311,14:57:48.628046
0.027258,-0000006,-0000003,-0000010,+0000050,-0000076,+0004145,-0000784,+0000478,-0002311,14:57:48.628046
0.027593,+0000021,-0000026,-0000005,+0000058,-0000087,+0004152,-0000778,+0000492,-0002319,14:57:48.628046
0.027924,+0000015,-0000029,-0000002,+0000040,-0000091,+0004168,-0000778,+0000492,-0002319,14:57:48.628046
0.028257,+0000011,-0000032,-0000014,+0000045,-0000090,+0004153,-0000778,+0000492,-0002319,14:57:48.628046
0.028590,+0000018,-0000029,-0000017,+0000043,-0000108,+0004134,-0000794,+0000478,-0002303,14:57:48.628046
0.028923,-0000005,+0000001,+0000004,+0000038,-0000110,+0004160,-0000794,+0000478,-0002303,14:57:48.628046
0.029256,+0000010,-0000015,-0000021,+0000053,-0000093,+0004143,-0000794,+0000478,-0002303,14:57:48.628046
0.029589,+0000016,-0000021,+0000003,+0000039,-0000074,+0004138,-0000800,+0000480,-0002320,14:57:48.628046
0.029922,+0000027,-0000045,-0000016,+0000052,-0000097,+0004150,-0000800,+0000480,-0002320,14:57:48.628046
0.030255,+0000018,-0000039,-0000008,+0000041,-0000088,+0004151,-0000800,+0000480,-0002320,14:57:48.628046
0.030588,+0000011,-0000011,-0000014,+0000045,-0000084,+0004160,-0000810,+0000486,-0002307,14:57:48.628046
0.030921,+0000021,-0000012,-0000007,+0000038,-0000084,+0004156,-0000810,+0000486,-0002307,14:57:48.628046
0.031254,+0000016,-0000021,-0000002,+0000043,-0000098,+0004151,-0000810,+0000486,-0002307,14:57:48.628046
0.031587,+0000027,-0000032,-0000017,+0000055,-0000095,+0004144,-0000788,+0000476,-0002325,14:57:48.628046
0.031920,+0000021,-0000029,-0000007,+0000046,-0000087,+0004160,-0000788,+0000476,-0002325,14:57:48.628046
0.032253,+0000011,-0000024,-0000007,+0000059,-0000069,+0004165,-0000788,+0000476,-0002325,14:57:48.628046
0.032586,+0000013,-0000021,-0000005,+0000046,-0000082,+0004139,-0000806,+0000468,-0002317,14:57:48.628046
0.032919,+0000007,-0000012,-0000002,+0000052,-0000089,+0004140,-0000806,+0000468,-0002317,14:57:48.628046
0.033252,+0000010,-0000013,-0000008,+0000058,-0000108,+0004142,-0000806,+0000468,-0002317,14:57:48.628046
0.033585,+0000005,-0000024,-0000002,+0000059,-0000081,+0004152,-0000802,+0000478,-0002302,14:57:48.628046
0.033918,+0000036,-0000031,-0000020,+0000048,-0000084,+0004158,-0000802,+0000478,-0002302,14:57:48.628046
0.034251,+0000008,-0000016,-0000007,+0000044,-0000090,+0004154,-0000802,+0000478,-0002302,14:57:48.628046
0.034584,+0000014,-0000016,-0000011,+0000049,-0000092,+0004149,-0000790,+0000466,-0002311,14:57:48.628046
0.034917,+0000003,-0000016,-0000003,+0000024,-0000096,+0004165,-0000790,+0000466,-0002311,14:57:48.629046
0.035250,+0000019,-0000018,-0000011,+0000037,-0000087,+0004168,-0000790,+0000466,-0002311,14:57:48.629046
0.035583,+0000014,-0000029,-0000013,+0000058,-0000073,+0004155,-0000788,+0000482,-0002317,14:57:48.629046
0.035916,+0000017,-0000024,-0000005,+0000067,-0000091,+0004158,-0000788,+0000482,-0002317,14:57:48.629046
0.036249,+0000016,-0000037,-0000006,+0000060,-0000077,+0004165,-0000788,+0000482,-0002317,14:57:48.629046
0.036582,+0000017,-0000023,-0000003,+0000052,-0000104,+0004144,-0000782,+0000474,-0002335,14:57:48.629046
0.036915,+0000008,-0000008,-0000005,+0000058,-0000084,+0004144,-0000782,+0000474,-0002335,14:57:48.629046
0.037248,+0000024,-0000029,+0000006,+0000060,-0000083,+0004165,-0000782,+0000474,-0002335,14:57:48.629046
0.037581,+0000035,-0000043,-0000015,+0000065,-0000083,+0004135,-0000788,+0000462,-0002331,14:57:48.629046
0.037914,+0000016,-0000037,-0000018,+0000054,-0000084,+0004177,-0000788,+0000462,-0002331,14:57:48.629046
0.038247,+0000021,-0000024,+0000003,+0000060,-0000095,+0004146,-0000788,+0000462,-0002331,14:57:48.629046
0.038580,+0000000,-0000013,-0000010,+0000049,-0000090,+0004149,-0000794,+0000480,-0002285,14:57:48.629046
0.038913,+0000009,-0000003,-0000010,+0000036,-0000105,+0004158,-0000794,+0000480,-0002285,14:57:48.629046
0.039246,+0000011,-0000009,-0000007,+0000055,-0000090,+0004165,-0000794,+0000480,-0002285,14:57:48.629046
0.039579,+0000027,-0000039,-0000008,+0000065,-0000106,+0004143,-0000784,+0000490,-0002317,14:57:48.629046
0.039912,+0000006,-0000023,-0000010,+0000045,-0000095,+0004162,-0000784,+0000490,-0002317,14:57:48.629046
0.040245,+0000019,-0000021,-0000016,+0000056,-0000078,+0004161,-0000784,+0000490,-0002317,14:57:48.629046
0.040578,+0000022,-0000023,-0000011,+0000020,-0000092,+0004145,-0000780,+0000470,-0002345,14:57:48.629046
0.040911,+0000000,-0000008,-0000007,+0000039,-0000076,+0004166,-0000780,+0000470,-0002345,14:57:48.629046
0.041244,+0000022,-0000024,-0000013,+0000055,-0000078,+0004149,-0000780,+0000470,-0002345,14:57:48.629046
0.041577,+0000008,-0000029,-0000008,+0000049,-0000081,+0004150,-0000776,+0000484,-0002313,14:57:48.629046
0.041910,+0000027,-0000037,-0000012,+0000064,-0000087,+0004145,-0000776,+0000484,-0002313,14:57:48.630044
0.042243,+0000008,-0000017,-0000007,+0000044,-0000071,+0004184,-0000776,+0000484,-0002313,14:57:48.630044
0.042576,-0000011,+0000000,-0000005,+0000032,-0000088,+0004187,-0000776,+0000472,-0002314,14:57:48.630044
0.042909,+0000019,-0000011,-0000002,+0000045,-0000102,+0004159,-0000776,+0000472,-0002314,14:57:48.630044
0.043243,+0000024,-0000030,-0000019,+0000049,-0000102,+0004168,-0000776,+0000472,-0002314,14:57:48.677774
0.043576,+0000026,-0000043,-0000007,+0000037,-0000097,+0004168,-0000790,+0000484,-0002323,14:57:48.677774
0.043912,+0000024,-0000035,-0000015,+0000030,-0000106,+0004152,-0000790,+0000484,-0002323,14:57:48.677774
0.044506,+0000007,-0000018,-0000008,+0000043,-0000091,+0004169,-0000790,+0000484,-0002323,14:57:48.677774
0.044718,+0000007,-0000018,-0000008,+0000043,-0000091,+0004169,-0000794,+0000496,-0002315,14:57:48.677774
0.044947,+0000018,-0000010,-0000012,+0000050,-0000086,+0004145,-0000794,+0000496,-0002315,14:57:48.677774
0.045269,+0000005,-0000007,-0000015,+0000056,-0000083,+0004150,-0000794,+0000496,-0002315,14:57:48.677774
0.045606,+0000010,-0000021,-0000007,+0000024,-0000089,+0004137,-0000792,+0000474,-0002331,14:57:48.677774
0.045987,+0000005,-0000023,-0000004,+0000041,-0000072,+0004156,-0000792,+0000474,-0002331,14:57:48.677774
0.046244,+0000013,-0000018,-0000013,+0000030,-0000086,+0004163,-0000792,+0000474,-0002331,14:57:48.677774
0.046574,+0000025,-0000021,-0000007,+0000026,-0000109,+0004147,-0000790,+0000476,-0002317,14:57:48.678773
0.046906,+0000005,-0000031,-0000016,+0000037,-0000107,+0004156,-0000790,+0000476,-0002317,14:57:48.678773
0.047240,+0000005,-0000029,+0000008,+0000028,-0000075,+0004165,-0000790,+0000476,-0002317,14:57:48.678773
0.047572,+0000041,-0000020,-0000002,+0000059,-0000092,+0004148,-0000780,+0000480,-0002304,14:57:48.678773
0.047904,+0000013,-0000013,+0000000,+0000044,-0000079,+0004143,-0000780,+0000480,-0002304,14:57:48.678773
0.048237,+0000016,-0000020,-0000024,+0000043,-0000076,+0004154,-0000780,+0000480,-0002304,14:57:48.678773
0.048570,+0000002,-0000007,+0000004,+0000031,-0000077,+0004156,-0000792,+0000478,-0002300,14:57:48.678773
0.048903,+0000014,-0000019,-0000014,+0000049,-0000074,+0004147,-0000792,+0000478,-0002300,14:57:48.678773
0.049237,+0000019,-0000024,-0000015,+0000046,-0000094,+0004155,-0000792,+0000478,-0002300,14:57:48.678773
0.049570,+0000029,-0000030,-0000014,+0000050,-0000086,+0004158,-0000800,+0000472,-0002312,14:57:48.678773
0.049903,-0000003,-0000024,-0000004,+0000047,-0000098,+0004154,-0000800,+0000472,-0002312,14:57:48.678773
0.050235,+0000022,-0000036,-0000016,+0000057,-0000071,+0004166,-0000800,+0000472,-0002312,14:57:48.678773
0.050568,+0000005,-0000002,-0000005,+0000054,-0000097,+0004150,-0000790,+0000494,-0002314,14:57:48.678773
0.050901,+0000021,-0000011,-0000008,+0000045,-0000093,+0004174,-0000790,+0000494,-0002314,14:57:48.678773
0.051234,+0000020,-0000047,-0000010,+0000045,-0000095,+0004166,-0000790,+0000494,-0002314,14:57:48.678773
0.051567,+0000014,-0000031,-0000007,+0000029,-0000082,+0004152,-0000788,+0000472,-0002328,14:57:48.678773
0.051900,+0000021,-0000032,-0000018,+0000053,-0000103,+0004164,-0000788,+0000472,-0002328,14:57:48.678773
0.052233,+0000011,-0000020,-0000008,+0000058,-0000093,+0004155,-0000788,+0000472,-0002328,14:57:48.678773
0.052566,-0000002,-0000015,-0000005,+0000050,-0000079,+0004154,-0000804,+0000466,-0002302,14:57:48.678773
0.052899,+0000019,-0000023,-0000018,+0000065,-0000096,+0004149,-0000804,+0000466,-0002302,14:57:48.678773
0.053232,+0000022,-0000038,+0000001,+0000039,-0000082,+0004159,-0000804,+0000466,-0002302,14:57:48.678773
0.053566,+0000027,-0000040,-0000016,+0000036,-0000088,+0004154,-0000788,+0000466,-0002328,14:57:48.678773
0.053898,+0000018,-0000021,-0000010,+0000033,-0000111,+0004151,-0000788,+0000466,-0002328,14:57:48.678773
0.054231,+0000006,-0000015,-0000004,+0000042,-0000091,+0004166,-0000788,+0000466,-0002328,14:57:48.678773
0.054564,-0000003,-0000002,+0000003,+0000063,-0000063,+0004146,-0000784,+0000478,-0002321,14:57:48.678773
0.054897,+0000024,-0000028,-0000002,+0000036,-0000084,+0004155,-0000784,+0000478,-0002321,14:57:48.678773
0.055230,+0000018,-0000037,-0000013,+0000055,-0000098,+0004142,-0000784,+0000478,-0002321,14:57:48.678773
0.055563,+0000009,-0000032,-0000023,+0000047,-0000077,+0004155,-0000794,+0000478,-0002313,14:57:48.678773
0.055896,+0000025,-0000024,-0000007,+0000039,-0000093,+0004156,-0000794,+0000478,-0002313,14:57:48.678773
0.056229,+0000002,-0000004,-0000007,+0000047,-0000085,+0004164,-0000794,+0000478,-0002313,14:57:48.678773
0.056562,+0000003,-0000015,-0000010,+0000066,-0000083,+0004158,-0000788,+0000472,-0002303,14:57:48.678773
0.056895,+0000006,-0000018,+0000001,+0000052,-0000096,+0004140,-0000788,+0000472,-0002303,14:57:48.678773
0.057228,+0000030,-0000047,-0000010,+0000056,-0000105,+0004148,-0000788,+0000472,-0002303,14:57:48.678773
0.057561,+0000021,-0000046,-0000013,+0000060,-0000077,+0004141,-0000796,+0000480,-0002305,14:57:48.678773
0.057894,-0000007,-0000010,-0000005,+0000041,-0000093,+0004145,-0000796,+0000480,-0002305,14:57:48.678773
0.058227,+0000006,-0000026,-0000015,+0000054,-0000095,+0004155,-0000796,+0000480,-0002305,14:57:48.679773
0.058560,+0000013,-0000013,-0000008,+0000047,-0000097,+0004155,-0000794,+0000484,-0002286,14:57:48.679773
0.058893,+0000010,-0000030,-0000006,+0000057,-0000089,+0004167,-0000794,+0000484,-0002286,14:57:48.679773
0.059226,+0000027,-0000045,-0000010,+0000035,-0000071,+0004156,-0000794,+0000484,-0002286,14:57:48.679773
0.059559,+0000018,-0000013,+0000003,+0000034,-0000077,+0004154,-0000784,+0000468,-0002320,14:57:48.679773
0.059892,+0000010,-0000021,-0000018,+0000042,-0000087,+0004131,-0000784,+0000468,-0002320,14:57:48.679773
0.060225,+0000008,-0000002,-0000007,+0000044,-0000095,+0004159,-0000784,+0000468,-0002320,14:57:48.679773
0.060558,+0000004,-0000040,-0000008,+0000041,-0000081,+0004181,-0000798,+0000476,-0002310,14:57:48.679773
0.060891,+0000015,-0000015,-0000005,+0000069,-0000079,+0004138,-0000798,+0000476,-0002310,14:57:48.679773
0.061224,+0000022,-0000032,-0000013,+0000039,-0000083,+0004137,-0000798,+0000476,-0002310,14:57:48.679773
0.061557,+0000028,-0000035,-0000007,+0000032,-0000094,+0004138,-0000798,+0000472,-0002312,14:57:48.679773
0.061890,-0000006,-0000011,-0000005,+0000037,-0000094,+0004146,-0000798,+0000472,-0002312,14:57:48.679773
0.062223,+0000018,-0000016,-0000019,+0000045,-0000088,+0004149,-0000798,+0000472,-0002312,14:57:48.679773
0.062556,+0000013,-0000010,-0000005,+0000068,-0000101,+0004164,-0000798,+0000474,-0002303,14:57:48.679773
0.062889,+0000013,-0000035,-0000008,+0000047,-0000097,+0004151,-0000798,+0000474,-0002303,14:57:48.679773
0.063222,+0000023,-0000042,+0000000,+0000044,-0000098,+0004160,-0000798,+0000474,-0002303,14:57:48.679773
0.063555,+0000016,-0000027,-0000010,+0000048,-0000097,+0004159,-0000800,+0000472,-0002321,14:57:48.679773
0.063888,-0000001,-0000018,-0000008,+0000044,-0000075,+0004153,-0000800,+0000472,-0002321,14:57:48.679773
0.064221,+0000008,-0000005,-0000011,+0000026,-0000096,+0004150,-0000800,+0000472,-0002321,14:57:48.679773
0.064554,+0000007,-0000023,+0000003,+0000043,-0000098,+0004158,-0000806,+0000474,-0002326,14:57:48.679773
0.064887,+0000024,-0000029,-0000008,+0000054,-0000076,+0004145,-0000806,+0000474,-0002326,14:57:48.679773
0.065220,+0000016,-0000032,-0000005,+0000047,-0000078,+0004161,-0000806,+0000474,-0002326,14:57:48.679773
0.065553,+0000022,-0000016,-0000008,+0000057,-0000083,+0004158,-0000802,+0000478,-0002313,14:57:48.679773
0.065886,+0000010,-0000021,-0000018,+0000046,-0000083,+0004151,-0000802,+0000478,-0002313,14:57:48.679773
0.066219,+0000013,-0000010,-0000011,+0000054,-0000096,+0004154,-0000802,+0000478,-0002313,14:57:48.679773
0.066552,+0000008,-0000021,-0000014,+0000045,-0000067,+0004152,-0000800,+0000478,-0002321,14:57:48.679773
0.066885,+0000011,-0000023,+0000002,+0000054,-0000071,+0004155,-0000800,+0000478,-0002321,14:57:48.679773
0.067218,+0000019,-0000040,-0000021,+0000035,-0000090,+0004148,-0000800,+0000478,-0002321,14:57:48.679773
0.067551,+0000027,-0000042,-0000015,+0000050,-0000082,+0004142,-0000802,+0000478,-0002305,14:57:48.679773
0.067884,+0000002,-0000010,-0000004,+0000045,-0000087,+0004149,-0000802,+0000478,-0002305,14:57:48.679773
0.068217,+0000014,-0000010,-0000002,+0000046,-0000070,+0004154,-0000802,+0000478,-0002305,14:57:48.679773
0.068550,+0000011,-0000023,-0000015,+0000058,-0000094,+0004170,-0000796,+0000466,-0002311,14:57:48.679773
0.068883,+0000020,-0000037,-0000007,+0000041,-0000094,+0004156,-0000796,+0000466,-0002311,14:57:48.679773
0.069216,+0000026,-0000029,-0000011,+0000053,-0000084,+0004175,-0000796,+0000466,-0002311,14:57:48.679773
0.069549,+0000008,-0000042,-0000021,+0000038,-0000097,+0004154,-0000804,+0000476,-0002316,14:57:48.679773
0.069882,-0000001,-0000005,-0000002,+0000054,-0000086,+0004160,-0000804,+0000476,-0002316,14:57:48.679773
0.070215,+0000013,-0000011,-0000008,+0000063,-0000081,+0004164,-0000804,+0000476,-0002316,14:57:48.679773
0.070548,+0000011,-0000032,-0000006,+0000050,-0000086,+0004167,-0000806,+0000486,-0002303,14:57:48.679773
0.070881,+0000014,-0000026,-0000004,+0000042,-0000090,+0004160,-0000806,+0000486,-0002303,14:57:48.679773
0.071214,+0000030,-0000035,-0000018,+0000029,-0000079,+0004156,-0000806,+0000486,-0002303,14:57:48.679773
0.071547,+0000011,-0000022,-0000010,+0000068,-0000097,+0004157,-0000810,+0000470,-0002319,14:57:48.679773
0.071880,+0000016,-0000005,-0000010,+0000067,-0000119,+0004151,-0000810,+0000470,-0002319,14:57:48.679773
0.072213,+0000007,-0000018,-0000002,+0000035,-0000098,+0004160,-0000810,+0000470,-0002319,14:57:48.679773
0.072546,+0000022,-0000028,+0000001,+0000021,-0000103,+0004151,-0000792,+0000478,-0002300,14:57:48.679773
0.072879,+0000011,-0000028,-0000014,+0000041,-0000097,+0004153,-0000792,+0000478,-0002300,14:57:48.679773
0.073212,+0000035,-0000023,-0000009,+0000050,-0000086,+0004159,-0000792,+0000478,-0002300,14:57:48.679773
0.073545,+0000013,-0000011,+0000003,+0000068,-0000066,+0004147,-0000796,+0000486,-0002332,14:57:48.679773
0.073878,+0000000,-0000021,-0000013,+0000057,-0000099,+0004152,-0000796,+0000486,-0002332,14:57:48.679773
0.074211,-0000009,-0000021,+0000000,+0000052,-0000090,+0004156,-0000796,+0000486,-0002332,14:57:48.679773
0.074544,+0000024,-0000031,-0000013,+0000059,-0000081,+0004168,-0000798,+0000494,-0002300,14:57:48.680774
0.074878,+0000021,-0000013,-0000004,+0000048,-0000078,+0004157,-0000798,+0000494,-0002300,14:57:48.680774
0.075210,+0000002,-0000010,-0000004,+0000039,-0000093,+0004144,-0000798,+0000494,-0002300,14:57:48.680774
0.075543,+0000030,-0000020,-0000008,+0000064,-0000090,+0004131,-0000800,+0000480,-0002324,14:57:48.680774
0.075878,-0000007,-0000013,-0000013,+0000052,-0000084,+0004138,-0000800,+0000480,-0002324,14:57:48.680774
0.076209,+0000016,-0000027,-0000001,+0000056,-0000098,+0004130,-0000800,+0000480,-0002324,14:57:48.680774
0.076542,+0000030,-0000034,-0000008,+0000039,-0000086,+0004153,-0000788,+0000472,-0002300,14:57:48.680774
0.076878,+0000024,-0000034,-0000010,+0000047,-0000074,+0004142,-0000788,+0000472,-0002300,14:57:48.680774
0.077208,+0000011,-0000021,-0000013,+0000040,-0000076,+0004149,-0000788,+0000472,-0002300,14:57:48.680774
0.077541,+0000019,-0000009,-0000005,+0000047,-0000081,+0004149,-0000800,+0000484,-0002321,14:57:48.680774
0.077879,+0000000,-0000021,-0000018,+0000043,-0000076,+0004159,-0000800,+0000484,-0002321,14:57:48.680774
0.078207,+0000016,-0000026,-0000002,+0000047,-0000095,+0004159,-0000800,+0000484,-0002321,14:57:48.680774
0.078540,+0000028,-0000037,-0000005,+0000063,-0000096,+0004154,-0000792,+0000488,-0002332,14:57:48.680774
0.078878,+0000026,-0000031,-0000018,+0000051,-0000082,+0004152,-0000792,+0000488,-0002332,14:57:48.680774
0.079206,+0000010,-0000029,-0000014,+0000054,-0000089,+0004163,-0000792,+0000488,-0002332,14:57:48.680774
0.079539,+0000006,-0000013,-0000005,+0000054,-0000095,+0004144,-0000792,+0000462,-0002334,14:57:48.680774
0.079877,+0000000,-0000007,+0000003,+0000042,-0000111,+0004160,-0000792,+0000462,-0002334,14:57:48.680774
0.080205,-0000004,-0000026,+0000007,+0000073,-0000085,+0004132,-0000792,+0000462,-0002334,14:57:48.680774
0.080538,+0000033,-0000034,-0000003,+0000049,-0000085,+0004157,-0000802,+0000486,-0002302,14:57:48.680774
0.080876,+0000017,-0000037,-0000010,+0000046,-0000091,+0004155,-0000802,+0000486,-0002302,14:57:48.680774
0.081204,+0000024,-0000024,-0000011,+0000061,-0000104,+0004148,-0000802,+0000486,-0002302,14:57:48.680774
0.081537,-0000003,-0000013,-0000007,+0000058,-0000102,+0004138,-0000794,+0000480,-0002324,14:57:48.680774
0.081875,+0000003,-0000011,+0000001,+0000052,-0000104,+0004154,-0000794,+0000480,-0002324,14:57:48.680774
0.082203,+0000025,-0000031,-0000005,+0000033,-0000101,+0004151,-0000794,+0000480,-0002324,14:57:48.680774
0.082536,+0000019,-0000028,-0000002,+0000028,-0000086,+0004166,-0000788,+0000494,-0002308,14:57:48.680774
0.082874,+0000024,-0000046,-0000024,+0000044,-0000078,+0004154,-0000788,+0000494,-0002308,14:57:48.680774
0.083202,+0000022,-0000026,+0000003,+0000041,-0000086,+0004145,-0000788,+0000494,-0002308,14:57:48.680774
0.083535,-0000009,-0000008,+0000008,+0000055,-0000089,+0004137,-0000800,+0000472,-0002322,14:57:48.680774
0.083871,+0000013,-0000008,-0000007,+0000042,-0000088,+0004158,-0000800,+0000472,-0002322,14:57:48.680774
0.084201,+0000019,-0000034,-0000010,+0000045,-0000088,+0004152,-0000800,+0000472,-0002322,14:57:48.680774
0.084534,+0000027,-0000043,-0000016,+0000046,-0000083,+0004150,-0000802,+0000490,-0002307,14:57:48.680774
0.084871,+0000014,-0000032,-0000010,+0000057,-0000085,+0004155,-0000802,+0000490,-0002307,14:57:48.680774
0.085200,+0000002,-0000003,-0000002,+0000036,-0000092,+0004137,-0000802,+0000490,-0002307,14:57:48.680774
0.085533,+0000008,-0000010,-0000013,+0000050,-0000100,+0004144,-0000792,+0000490,-0002304,14:57:48.680774
0.085870,+0000007,-0000024,-0000002,+0000037,-0000091,+0004151,-0000792,+0000490,-0002304,14:57:48.680774
0.086199,+0000028,-0000038,-0000023,+0000055,-0000105,+0004141,-0000792,+0000490,-0002304,14:57:48.680774
0.086532,+0000010,-0000034,+0000001,+0000019,-0000087,+0004154,-0000794,+0000476,-0002336,14:57:48.680774
0.086870,+0000010,-0000026,-0000011,+0000046,-0000061,+0004147,-0000794,+0000476,-0002336,14:57:48.680774
0.087198,+0000005,-0000005,-0000007,+0000062,-0000090,+0004150,-0000794,+0000476,-0002336,14:57:48.680774
0.087531,+0000003,-0000011,+0000000,+0000015,-0000106,+0004154,-0000814,+0000478,-0002328,14:57:48.680774
0.087868,+0000000,-0000031,-0000015,+0000041,-0000094,+0004146,-0000814,+0000478,-0002328,14:57:48.680774
0.088197,+0000017,-0000029,-0000006,+0000051,-0000096,+0004143,-0000814,+0000478,-0002328,14:57:48.680774
0.088530,+0000021,-0000045,-0000011,+0000044,-0000092,+0004148,-0000808,+0000488,-0002313,14:57:48.680774
0.088867,+0000019,-0000030,-0000019,+0000063,-0000094,+0004162,-0000808,+0000488,-0002313,14:57:48.680774
0.089196,+0000000,-0000015,-0000008,+0000049,-0000094,+0004153,-0000808,+0000488,-0002313,14:57:48.680774
0.089529,+0000000,-0000013,+0000000,+0000049,-0000097,+0004146,-0000800,+0000486,-0002332,14:57:48.680774
0.089862,+0000024,-0000034,-0000011,+0000054,-0000099,+0004136,-0000800,+0000486,-0002332,14:57:48.680774
0.090195,+0000021,-0000028,-0000002,+0000052,-0000088,+0004131,-0000800,+0000486,-0002332,14:57:48.680774
0.090528,+0000018,-0000037,-0000007,+0000047,-0000089,+0004156,-0000804,+0000490,-0002335,14:57:48.680774
0.090862,+0000022,-0000014,-0000011,+0000047,-0000089,+0004153,-0000804,+0000490,-0002335,14:57:48.680774
0.091194,-0000014,-0000020,+0000000,+0000051,-0000078,+0004153,-0000804,+0000490,-0002335,14:57:48.680774
0.091527,+0000016,-0000026,-0000007,+0000059,-0000102,+0004132,-0000798,+0000476,-0002334,14:57:48.681773
0.091862,+0000006,-0000013,+0000001,+0000033,-0000085,+0004144,-0000798,+0000476,-0002334,14:57:48.681773
0.092193,+0000016,-0000027,-0000005,+0000051,-0000093,+0004139,-0000798,+0000476,-0002334,14:57:48.681773
0.092526,+0000014,-0000039,-0000013,+0000039,-0000080,+0004153,-0000800,+0000472,-0002326,14:57:48.681773
0.092863,+0000015,-0000029,-0000008,+0000053,-0000084,+0004166,-0000800,+0000472,-0002326,14:57:48.681773
0.093196,+0000004,-0000016,-0000010,+0000050,-0000087,+0004142,-0000800,+0000472,-0002326,14:57:48.722096
0.093526,+0000011,-0000013,-0000005,+0000066,-0000099,+0004179,-0000798,+0000466,-0002331,14:57:48.722096
0.093863,+0000013,-0000016,-0000007,+0000057,-0000099,+0004163,-0000798,+0000466,-0002331,14:57:48.722096
0.094554,+0000016,-0000020,-0000012,+0000059,-0000081,+0004164,-0000798,+0000466,-0002331,14:57:48.722096
0.095080,+0000004,-0000020,-0000005,+0000040,-0000070,+0004161,-0000806,+0000458,-0002316,14:57:48.722096
0.095339,+0000013,-0000028,-0000008,+0000046,-0000076,+0004166,-0000806,+0000458,-0002316,14:57:48.722096
0.095524,+0000011,-0000023,-0000011,+0000036,-0000092,+0004164,-0000806,+0000458,-0002316,14:57:48.722096
0.095864,+0000019,-0000030,-0000004,+0000029,-0000096,+0004154,-0000806,+0000458,-0002316,14:57:48.722096
0.096189,+0000028,-0000036,-0000018,+0000046,-0000113,+0004143,-0000806,+0000458,-0002316,14:57:48.722096
0.096523,+0000011,-0000028,-0000008,+0000027,-0000078,+0004132,-0000806,+0000458,-0002316,14:57:48.722096
0.096879,+0000013,-0000029,-0000002,+0000025,-0000097,+0004146,-0000802,+0000482,-0002324,14:57:48.722096
0.097188,+0000024,-0000013,-0000010,+0000023,-0000110,+0004133,-0000802,+0000482,-0002324,14:57:48.722096
0.097521,+0000014,-0000032,-0000005,+0000051,-0000095,+0004133,-0000802,+0000482,-0002324,14:57:48.722096
0.097867,+0000014,-0000024,-0000003,+0000036,-0000084,+0004134,-0000786,+0000488,-0002342,14:57:48.722096
0.098187,+0000027,-0000037,-0000007,+0000047,-0000101,+0004138,-0000786,+0000488,-0002342,14:57:48.722096
0.098536,+0000005,-0000020,-0000011,+0000038,-0000097,+0004137,-0000786,+0000488,-0002342,14:57:48.722096
0.098867,-0000006,-0000027,-0000008,+0000059,-0000096,+0004146,-0000802,+0000480,-0002308,14:57:48.722096
0.099327,+0000025,-0000021,+0000000,+0000043,-0000108,+0004146,-0000802,+0000480,-0002308,14:57:48.722096
0.099526,+0000000,-0000032,-0000011,+0000048,-0000108,+0004146,-0000802,+0000480,-0002308,14:57:48.722096
0.099864,+0000013,-0000018,-0000006,+0000070,-0000084,+0004156,-0000814,+0000492,-0002341,14:57:48.722096
0.100187,+0000000,-0000020,-0000005,+0000046,-0000085,+0004145,-0000814,+0000492,-0002341,14:57:48.722096
0.100518,+0000023,-0000023,-0000010,+0000045,-0000092,+0004142,-0000814,+0000492,-0002341,14:57:48.723110
0.100851,+0000000,-0000008,-0000005,+0000044,-0000079,+0004157,-0000782,+0000494,-0002306,14:57:48.723110
0.101184,+0000018,-0000027,-0000011,+0000065,-0000083,+0004146,-0000782,+0000494,-0002306,14:57:48.723110
0.101593,+0000010,-0000011,-0000008,+0000046,-0000094,+0004163,-0000782,+0000494,-0002306,14:57:48.723110
0.101865,+0000005,-0000020,+0000000,+0000049,-0000082,+0004166,-0000790,+0000484,-0002322,14:57:48.723110
0.102185,+0000016,-0000026,-0000015,+0000043,-0000096,+0004165,-0000790,+0000484,-0002322,14:57:48.723110
0.102519,+0000008,-0000013,-0000002,+0000050,-0000089,+0004163,-0000790,+0000484,-0002322,14:57:48.723110
0.102851,+0000024,-0000018,-0000014,+0000058,-0000080,+0004166,-0000780,+0000484,-0002309,14:57:48.723110
0.103183,-0000003,-0000021,-0000005,+0000056,-0000061,+0004158,-0000780,+0000484,-0002309,14:57:48.723110
0.103516,+0000010,-0000008,-0000002,+0000052,-0000082,+0004159,-0000780,+0000484,-0002309,14:57:48.723110
0.103848,+0000018,-0000032,-0000014,+0000026,-0000084,+0004176,-0000808,+0000490,-0002332,14:57:48.723110
0.104181,+0000019,-0000031,-0000007,+0000038,-0000071,+0004168,-0000808,+0000490,-0002332,14:57:48.723110
0.104515,+0000016,-0000020,-0000007,+0000055,-0000083,+0004155,-0000808,+0000490,-0002332,14:57:48.723110
0.104848,+0000005,-0000028,-0000015,+0000053,-0000082,+0004147,-0000796,+0000488,-0002314,14:57:48.724110
0.105182,+0000014,-0000021,+0000001,+0000047,-0000080,+0004152,-0000796,+0000488,-0002314,14:57:48.724110
0.105513,+0000002,-0000003,-0000002,+0000043,-0000083,+0004127,-0000796,+0000488,-0002314,14:57:48.724110
0.105846,+0000017,-0000035,-0000001,+0000045,-0000087,+0004141,-0000800,+0000472,-0002309,14:57:48.724110
0.106179,+0000028,-0000034,-0000026,+0000044,-0000079,+0004142,-0000800,+0000472,-0002309,14:57:48.724110
0.106512,+0000009,-0000021,-0000002,+0000045,-0000101,+0004152,-0000800,+0000472,-0002309,14:57:48.724110
0.106845,+0000011,-0000015,-0000003,+0000049,-0000083,+0004150,-0000788,+0000482,-0002336,14:57:48.724110
0.107178,+0000007,-0000018,-0000007,+0000054,-0000103,+0004141,-0000788,+0000482,-0002336,14:57:48.726110
0.107511,+0000006,-0000018,-0000005,+0000050,-0000077,+0004130,-0000788,+0000482,-0002336,14:57:48.726110
0.107844,+0000000,-0000030,-0000001,+0000050,-0000085,+0004136,-0000802,+0000490,-0002348,14:57:48.726110
0.108177,+0000027,-0000044,-0000005,+0000058,-0000067,+0004155,-0000802,+0000490,-0002348,14:57:48.727110
0.108510,+0000002,-0000026,-0000011,+0000041,-0000090,+0004150,-0000802,+0000490,-0002348,14:57:48.727110
0.108843,+0000017,-0000015,-0000011,+0000068,-0000090,+0004159,-0000798,+0000482,-0002340,14:57:48.727110
0.109176,+0000013,-0000016,-0000010,+0000054,-0000095,+0004157,-0000798,+0000482,-0002340,14:57:48.727110
0.109509,+0000000,-0000016,-0000003,+0000039,-0000095,+0004163,-0000798,+0000482,-0002340,14:57:48.727110
0.109842,+0000027,-0000037,+0000000,+0000045,-0000088,+0004149,-0000796,+0000480,-0002325,14:57:48.727110
0.110175,+0000018,-0000043,-0000003,+0000051,-0000095,+0004159,-0000796,+0000480,-0002325,14:57:48.727110
0.110508,+0000022,-0000026,-0000030,+0000042,-0000085,+0004168,-0000796,+0000480,-0002325,14:57:48.727110
0.110841,+0000013,-0000002,-0000014,+0000067,-0000087,+0004158,-0000782,+0000482,-0002327,14:57:48.728107
0.111174,-0000015,+0000001,-0000002,+0000051,-0000117,+0004156,-0000782,+0000482,-0002327,14:57:48.728107
0.111507,+0000025,-0000045,-0000015,+0000049,-0000090,+0004160,-0000782,+0000482,-0002327,14:57:48.728107
0.111840,+0000016,-0000028,-0000008,+0000051,-0000097,+0004134,-0000800,+0000494,-0002346,14:57:48.728107
0.112173,+0000024,-0000037,-0000004,+0000042,-0000097,+0004143,-0000800,+0000494,-0002346,14:57:48.729110
0.112506,+0000000,-0000004,+0000012,+0000040,-0000094,+0004152,-0000800,+0000494,-0002346,14:57:48.729110
0.112839,+0000011,-0000016,-0000011,+0000066,-0000094,+0004140,-0000792,+0000458,-0002329,14:57:48.729110
0.113172,+0000009,-0000027,-0000007,+0000057,-0000109,+0004158,-0000792,+0000458,-0002329,14:57:48.729110
0.113505,+0000022,-0000026,+0000001,+0000049,-0000106,+0004137,-0000792,+0000458,-0002329,14:57:48.729110
0.113838,+0000030,-0000030,-0000016,+0000051,-0000089,+0004150,-0000782,+0000478,-0002332,14:57:48.729110
0.114171,+0000002,-0000030,+0000004,+0000056,-0000077,+0004143,-0000782,+0000478,-0002332,14:57:48.729110
0.114504,+0000002,-0000008,-0000018,+0000055,-0000052,+0004153,-0000782,+0000478,-0002332,14:57:48.729110
0.114837,-0000007,-0000008,+0000000,+0000048,-0000086,+0004142,-0000804,+0000468,-0002326,14:57:48.729110
0.115170,+0000027,-0000031,-0000016,+0000039,-0000074,+0004154,-0000804,+0000468,-0002326,14:57:48.729110
0.115503,+0000011,-0000013,+0000003,+0000048,-0000068,+0004156,-0000804,+0000468,-0002326,14:57:48.729110
0.115836,+0000030,-0000012,-0000008,+0000057,-0000078,+0004157,-0000798,+0000482,-0002340,14:57:48.729110
0.116169,+0000013,-0000034,-0000018,+0000031,-0000104,+0004149,-0000798,+0000482,-0002340,14:57:48.729110
0.116502,+0000005,-0000013,+0000000,+0000037,-0000081,+0004180,-0000798,+0000482,-0002340,14:57:48.729110
0.116835,+0000005,-0000018,-0000013,+0000038,-0000082,+0004161,-0000790,+0000496,-0002312,14:57:48.729110
0.117168,+0000005,-0000018,-0000008,+0000065,-0000077,+0004156,-0000790,+0000496,-0002312,14:57:48.729110
0.117501,+0000024,-0000032,-0000008,+0000046,-0000078,+0004154,-0000790,+0000496,-0002312,14:57:48.729110
0.117834,+0000014,-0000032,-0000007,+0000038,-0000091,+0004173,-0000796,+0000472,-0002323,14:57:48.729110
0.118167,+0000018,-0000018,-0000003,+0000051,-0000100,+0004147,-0000796,+0000472,-0002323,14:57:48.729110
0.118500,-0000006,-0000023,-0000013,+0000030,-0000101,+0004160,-0000796,+0000472,-0002323,14:57:48.729110
0.118833,+0000003,-0000005,-0000005,+0000053,-0000063,+0004149,-0000806,+0000474,-0002339,14:57:48.729110
0.119166,+0000013,-0000031,-0000007,+0000046,-0000091,+0004165,-0000806,+0000474,-0002339,14:57:48.729110
0.119499,+0000008,-0000037,-0000010,+0000051,-0000096,+0004170,-0000806,+0000474,-0002339,14:57:48.729110
0.119832,+0000008,-0000035,+0000000,+0000051,-0000100,+0004154,-0000792,+0000486,-0002345,14:57:48.729110
0.120165,+0000030,-0000034,-0000026,+0000025,-0000094,+0004156,-0000792,+0000486,-0002345,14:57:48.729110
0.120498,+0000010,-0000015,+0000001,+0000045,-0000100,+0004163,-0000792,+0000486,-0002345,14:57:48.729110
0.120831,+0000002,-0000016,-0000005,+0000049,-0000092,+0004152,-0000790,+0000482,-0002313,14:57:48.729110
0.121164,+0000010,-0000016,-0000011,+0000054,-0000094,+0004181,-0000790,+0000482,-0002313,14:57:48.730110
0.121497,+0000011,-0000032,-0000008,+0000056,-0000085,+0004148,-0000790,+0000482,-0002313,14:57:48.730110
0.121830,+0000028,-0000027,-0000008,+0000057,-0000087,+0004148,-0000798,+0000476,-0002322,14:57:48.730110
0.122163,+0000015,-0000031,-0000023,+0000057,-0000083,+0004161,-0000798,+0000476,-0002322,14:57:48.730110
0.122496,+0000017,-0000019,+0000003,+0000046,-0000083,+0004160,-0000798,+0000476,-0002322,14:57:48.730110
0.122829,-0000008,-0000006,-0000003,+0000028,-0000095,+0004144,-0000776,+0000482,-0002312,14:57:48.730110
0.123162,+0000017,-0000024,-0000014,+0000051,-0000090,+0004154,-0000776,+0000482,-0002312,14:57:48.730110
0.123495,+0000021,-0000042,-0000008,+0000055,-0000072,+0004169,-0000776,+0000482,-0002312,14:57:48.730110
0.123828,+0000011,-0000031,-0000008,+0000057,-0000088,+0004165,-0000780,+0000468,-0002348,14:57:48.730110
0.124161,+0000019,-0000031,-0000005,+0000057,-0000096,+0004141,-0000780,+0000468,-0002348,14:57:48.730110
0.124494,+0000002,+0000008,+0000000,+0000047,-0000095,+0004143,-0000780,+0000468,-0002348,14:57:48.730110
0.124827,+0000013,-0000026,-0000008,+0000046,-0000089,+0004145,-0000790,+0000478,-0002312,14:57:48.730110
0.125160,+0000007,-0000027,-0000002,+0000063,-0000083,+0004147,-0000790,+0000478,-0002312,14:57:48.730110
0.125493,+0000027,-0000042,-0000008,+0000041,-0000095,+0004152,-0000790,+0000478,-0002312,14:57:48.730110
0.125826,+0000033,-0000043,-0000012,+0000064,-0000063,+0004137,-0000798,+0000478,-0002331,14:57:48.730110
0.126159,+0000011,-0000004,-0000013,+0000057,-0000078,+0004141,-0000798,+0000478,-0002331,14:57:48.730110
0.126492,+0000005,-0000023,-0000010,+0000067,-0000096,+0004150,-0000798,+0000478,-0002331,14:57:48.730110
0.126825,+0000006,-0000016,+0000004,+0000057,-0000089,+0004155,-0000796,+0000472,-0002313,14:57:48.730110
0.127158,+0000033,-0000037,-0000013,+0000040,-0000091,+0004147,-0000796,+0000472,-0002313,14:57:48.730110
0.127491,+0000010,-0000027,-0000001,+0000046,-0000089,+0004159,-0000796,+0000472,-0002313,14:57:48.730110
0.127824,+0000022,-0000023,-0000008,+0000043,-0000074,+0004133,-0000792,+0000476,-0002321,14:57:48.730110
0.128157,+0000002,-0000003,-0000007,+0000062,-0000079,+0004137,-0000792,+0000476,-0002321,14:57:48.730110
0.128490,+0000008,-0000032,-0000005,+0000055,-0000103,+0004154,-0000792,+0000476,-0002321,14:57:48.730110
0.128823,+0000007,-0000004,-0000002,+0000047,-0000074,+0004154,-0000806,+0000476,-0002312,14:57:48.730110
0.129156,+0000014,-0000042,-0000010,+0000060,-0000092,+0004143,-0000806,+0000476,-0002312,14:57:48.730110
0.129489,+0000027,-0000024,-0000010,+0000036,-0000095,+0004153,-0000806,+0000476,-0002312,14:57:48.730110
0.129827,+0000006,-0000011,+0000001,+0000047,-0000103,+0004167,-0000794,+0000466,-0002321,14:57:48.730110
0.130155,+0000016,-0000024,-0000014,+0000047,-0000093,+0004139,-0000794,+0000466,-0002321,14:57:48.730110
0.130488,+0000013,-0000021,-0000010,+0000059,-0000095,+0004162,-0000794,+0000466,-0002321,14:57:48.730110
0.130821,+0000019,-0000031,-0000006,+0000047,-0000092,+0004152,-0000802,+0000460,-0002313,14:57:48.730110
0.131154,+0000017,-0000032,-0000005,+0000043,-0000092,+0004160,-0000802,+0000460,-0002313,14:57:48.730110
0.131487,+0000018,-0000042,-0000010,+0000025,-0000091,+0004152,-0000802,+0000460,-0002313,14:57:48.730110
0.131820,+0000022,-0000015,-0000018,+0000062,-0000081,+0004171,-0000796,+0000468,-0002332,14:57:48.730110
0.132153,+0000005,-0000012,-0000007,+0000045,-0000096,+0004161,-0000796,+0000468,-0002332,14:57:48.730110
0.132486,+0000007,-0000017,-0000007,+0000051,-0000091,+0004149,-0000796,+0000468,-0002332,14:57:48.730110
0.132819,+0000002,-0000011,-0000007,+0000039,-0000092,+0004175,-0000800,+0000480,-0002318,14:57:48.730110
0.133152,+0000011,-0000032,-0000011,+0000038,-0000091,+0004136,-0000800,+0000480,-0002318,14:57:48.730110
0.133485,+0000035,-0000034,-0000011,+0000069,-0000095,+0004139,-0000800,+0000480,-0002318,14:57:48.730110
0.133818,+0000017,-0000027,-0000013,+0000061,-0000132,+0004153,-0000792,+0000482,-0002317,14:57:48.730110
0.134151,+0000006,-0000016,-0000013,+0000062,-0000097,+0004157,-0000792,+0000482,-0002317,14:57:48.730110
0.134484,+0000010,-0000011,-0000010,+0000039,-0000085,+0004130,-0000792,+0000482,-0002317,14:57:48.730110
0.134817,+0000006,-0000018,-0000013,+0000050,-0000090,+0004164,-0000814,+0000486,-0002334,14:57:48.730110
0.135150,+0000022,-0000039,-0000002,+0000052,-0000108,+0004154,-0000814,+0000486,-0002334,14:57:48.730110
0.135483,+0000021,-0000030,-0000011,+0000038,-0000076,+0004146,-0000814,+0000486,-0002334,14:57:48.730110
0.135816,+0000012,-0000030,-0000006,+0000050,-0000096,+0004168,-0000796,+0000480,-0002313,14:57:48.730110
0.136149,+0000014,-0000015,-0000010,+0000046,-0000085,+0004143,-0000796,+0000480,-0002313,14:57:48.730110
0.136482,+0000011,-0000004,-0000015,+0000055,-0000099,+0004149,-0000796,+0000480,-0002313,14:57:48.730110
0.136815,+0000011,-0000032,-0000007,+0000059,-0000075,+0004149,-0000788,+0000480,-0002329,14:57:48.730110
0.137148,+0000027,-0000029,-0000014,+0000050,-0000081,+0004162,-0000788,+0000480,-0002329,14:57:48.730110
0.137481,+0000030,-0000040,-0000015,+0000048,-0000108,+0004149,-0000788,+0000480,-0002329,14:57:48.730110
0.137814,+0000019,-0000014,-0000005,+0000026,-0000084,+0004138,-0000812,+0000490,-0002320,14:57:48.730110
0.138147,+0000000,-0000002,+0000008,+0000039,-0000082,+0004138,-0000812,+0000490,-0002320,14:57:48.730110
0.138480,+0000011,-0000010,-0000007,+0000039,-0000083,+0004158,-0000812,+0000490,-0002320,14:57:48.730110
0.138813,+0000031,-0000034,-0000019,+0000047,-0000078,+0004130,-0000788,+0000470,-0002297,14:57:48.730110
0.139146,+0000006,-0000035,+0000000,+0000063,-0000089,+0004154,-0000788,+0000470,-0002297,14:57:48.730110
0.139479,+0000030,-0000040,-0000019,+0000053,-0000097,+0004148,-0000788,+0000470,-0002297,14:57:48.731110
0.139812,+0000002,-0000019,-0000016,+0000046,-0000105,+0004162,-0000806,+0000466,-0002320,14:57:48.731110
0.140145,+0000036,-0000005,-0000010,+0000054,-0000092,+0004154,-0000806,+0000466,-0002320,14:57:48.731110
0.140478,+0000010,-0000013,-0000012,+0000067,-0000103,+0004135,-0000806,+0000466,-0002320,14:57:48.731110
0.140811,+0000016,-0000032,-0000002,+0000048,-0000090,+0004154,-0000802,+0000468,-0002320,14:57:48.731110
0.141144,+0000034,-0000035,-0000012,+0000051,-0000085,+0004156,-0000802,+0000468,-0002320,14:57:48.731110
0.141477,+0000013,-0000024,-0000019,+0000054,-0000090,+0004142,-0000802,+0000468,-0002320,14:57:48.731110
0.141810,+0000008,-0000005,-0000007,+0000077,-0000072,+0004159,-0000814,+0000490,-0002338,14:57:48.731110
0.142143,+0000013,-0000006,-0000005,+0000065,-0000089,+0004174,-0000814,+0000490,-0002338,14:57:48.731110
0.142476,+0000010,-0000016,+0000006,+0000057,-0000092,+0004143,-0000814,+0000490,-0002338,14:57:48.731110
0.142809,+0000022,-0000032,-0000013,+0000057,-0000097,+0004153,-0000804,+0000480,-0002315,14:57:48.731110
0.143142,+0000027,-0000011,-0000016,+0000049,-0000076,+0004132,-0000804,+0000480,-0002315,14:57:48.781655
0.143478,+0000008,-0000042,-0000012,+0000052,-0000089,+0004132,-0000804,+0000480,-0002315,14:57:48.781655
0.143812,+0000017,-0000026,-0000004,+0000033,-0000085,+0004138,-0000792,+0000474,-0002310,14:57:48.781655
0.144537,+0000005,-0000010,-0000007,+0000051,-0000103,+0004159,-0000792,+0000474,-0002310,14:57:48.781655
0.145073,-0000006,-0000024,-0000015,+0000056,-0000074,+0004141,-0000792,+0000474,-0002310,14:57:48.781655
0.145261,+0000010,-0000024,-0000015,+0000056,-0000074,+0004141,-0000786,+0000472,-0002327,14:57:48.781655
0.145923,+0000014,-0000013,-0000001,+0000053,-0000080,+0004132,-0000786,+0000472,-0002327,14:57:48.781655
0.146136,+0000014,-0000013,-0000001,+0000053,-0000080,+0004132,-0000786,+0000472,-0002327,14:57:48.781655
0.146472,+0000002,-0000008,-0000002,+0000054,-0000102,+0004166,-0000794,+0000474,-0002312,14:57:48.781655
0.146809,+0000021,-0000030,-0000002,+0000053,-0000120,+0004150,-0000794,+0000474,-0002312,14:57:48.781655
0.147148,+0000014,-0000018,-0000022,+0000034,-0000090,+0004148,-0000794,+0000474,-0002312,14:57:48.781655
0.147474,+0000015,-0000015,-0000003,+0000053,-0000073,+0004145,-0000808,+0000476,-0002324,14:57:48.781655
0.147915,+0000015,-0000019,-0000005,+0000056,-0000093,+0004159,-0000808,+0000476,-0002324,14:57:48.781655
0.148137,+0000015,-0000019,-0000005,+0000058,-0000084,+0004155,-0000808,+0000476,-0002324,14:57:48.781655
0.148470,+0000030,-0000034,-0000011,+0000041,-0000106,+0004162,-0000796,+0000472,-0002309,14:57:48.781655
0.148803,+0000021,-0000035,-0000016,+0000053,-0000071,+0004157,-0000796,+0000472,-0002309,14:57:48.781655
0.149136,+0000027,-0000047,-0000005,+0000046,-0000086,+0004152,-0000796,+0000472,-0002309,14:57:48.781655
0.149470,+0000024,-0000020,-0000010,+0000047,-0000075,+0004148,-0000796,+0000452,-0002340,14:57:48.782656
0.149802,+0000006,-0000034,-0000019,+0000047,-0000078,+0004150,-0000796,+0000452,-0002340,14:57:48.782656
0.150136,+0000002,-0000010,-0000004,+0000048,-0000097,+0004169,-0000796,+0000452,-0002340,14:57:48.782656
0.150470,+0000024,-0000032,-0000010,+0000046,-0000100,+0004153,-0000802,+0000462,-0002314,14:57:48.782656
0.150803,+0000021,-0000026,-0000010,+0000041,-0000084,+0004142,-0000802,+0000462,-0002314,14:57:48.782656
0.151134,+0000017,-0000036,-0000013,+0000010,-0000086,+0004131,-0000802,+0000462,-0002314,14:57:48.782656
0.151475,+0000014,-0000029,-0000008,+0000061,-0000090,+0004134,-0000802,+0000474,-0002335,14:57:48.782656
0.151802,+0000009,-0000024,-0000002,+0000048,-0000090,+0004139,-0000802,+0000474,-0002335,14:57:48.782656
0.152133,+0000005,-0000015,-0000012,+0000050,-0000099,+0004159,-0000802,+0000474,-0002335,14:57:48.782656
0.152466,+0000030,-0000045,-0000010,+0000044,-0000102,+0004159,-0000796,+0000488,-0002322,14:57:48.782656
0.152799,+0000016,-0000024,-0000005,+0000059,-0000097,+0004162,-0000796,+0000488,-0002322,14:57:48.782656
0.153132,+0000026,-0000035,-0000018,+0000065,-0000068,+0004163,-0000796,+0000488,-0002322,14:57:48.782656
0.153465,+0000008,-0000021,-0000016,+0000056,-0000079,+0004149,-0000802,+0000476,-0002312,14:57:48.782656
0.153798,+0000017,-0000022,-0000005,+0000048,-0000107,+0004165,-0000802,+0000476,-0002312,14:57:48.782656
0.154131,+0000005,-0000010,-0000013,+0000049,-0000070,+0004156,-0000802,+0000476,-0002312,14:57:48.782656
0.154464,+0000008,-0000024,+0000002,+0000040,-0000091,+0004145,-0000800,+0000470,-0002345,14:57:48.782656
0.154797,+0000044,-0000046,-0000026,+0000050,-0000100,+0004152,-0000800,+0000470,-0002345,14:57:48.782656
0.155130,+0000008,-0000021,-0000007,+0000042,-0000085,+0004131,-0000800,+0000470,-0002345,14:57:48.782656
0.155463,+0000003,-0000007,+0000001,+0000057,-0000062,+0004155,-0000808,+0000470,-0002306,14:57:48.782656
0.155797,+0000008,-0000012,-0000004,+0000046,-0000087,+0004147,-0000808,+0000470,-0002306,14:57:48.782656
0.156129,+0000016,-0000034,-0000024,+0000045,-0000102,+0004168,-0000808,+0000470,-0002306,14:57:48.782656
0.156462,+0000016,-0000034,-0000005,+0000029,-0000082,+0004150,-0000798,+0000470,-0002309,14:57:48.782656
0.156795,+0000022,-0000015,-0000015,+0000046,-0000082,+0004128,-0000798,+0000470,-0002309,14:57:48.782656
0.157128,+0000003,-0000016,-0000003,+0000049,-0000092,+0004133,-0000798,+0000470,-0002309,14:57:48.782656
0.157461,+0000005,-0000027,-0000021,+0000053,-0000081,+0004150,-0000788,+0000474,-0002326,14:57:48.782656
0.157794,+0000008,-0000016,+0000000,+0000048,-0000090,+0004137,-0000788,+0000474,-0002326,14:57:48.782656
0.158127,+0000005,-0000011,+0000000,+0000055,-0000107,+0004138,-0000788,+0000474,-0002326,14:57:48.782656
0.158460,+0000019,-0000027,-0000005,+0000056,-0000091,+0004151,-0000794,+0000466,-0002339,14:57:48.782656
0.158793,+0000013,-0000031,-0000014,+0000035,-0000106,+0004150,-0000794,+0000466,-0002339,14:57:48.782656
0.159126,+0000016,-0000006,-0000008,+0000051,-0000099,+0004137,-0000794,+0000466,-0002339,14:57:48.782656
0.159459,+0000020,-0000021,-0000007,+0000047,-0000102,+0004148,-0000788,+0000466,-0002319,14:57:48.782656
0.159792,-0000003,+0000001,-0000008,+0000032,-0000107,+0004146,-0000788,+0000466,-0002319,14:57:48.782656
0.160125,+0000027,-0000023,-0000005,+0000051,-0000082,+0004152,-0000788,+0000466,-0002319,14:57:48.782656
0.160458,+0000022,-0000037,-0000008,+0000044,-0000105,+0004151,-0000784,+0000486,-0002327,14:57:48.782656
0.160791,+0000019,-0000040,-0000029,+0000044,-0000081,+0004160,-0000784,+0000486,-0002327,14:57:48.782656
0.161124,+0000019,-0000029,-0000016,+0000059,-0000076,+0004154,-0000784,+0000486,-0002327,14:57:48.782656
0.161457,+0000002,-0000016,+0000000,+0000042,-0000088,+0004159,-0000786,+0000486,-0002327,14:57:48.782656
0.161790,+0000019,-0000008,-0000007,+0000071,-0000078,+0004143,-0000786,+0000486,-0002327,14:57:48.782656
0.162123,+0000003,-0000002,+0000001,+0000062,-0000092,+0004148,-0000786,+0000486,-0002327,14:57:48.782656
0.162456,+0000030,-0000056,-0000013,+0000056,-0000105,+0004162,-0000786,+0000482,-0002318,14:57:48.782656
0.162789,+0000009,-0000031,-0000010,+0000070,-0000084,+0004135,-0000786,+0000482,-0002318,14:57:48.782656
0.163122,+0000011,-0000016,-0000010,+0000057,-0000083,+0004147,-0000786,+0000482,-0002318,14:57:48.782656
0.163455,+0000007,-0000020,-0000007,+0000044,-0000088,+0004133,-0000790,+0000468,-0002336,14:57:48.782656
0.163788,-0000008,-0000018,+0000008,+0000046,-0000079,+0004131,-0000790,+0000468,-0002336,14:57:48.782656
0.164121,+0000021,-0000018,-0000019,+0000038,-0000097,+0004146,-0000790,+0000468,-0002336,14:57:48.782656
0.164454,+0000025,-0000032,-0000002,+0000054,-0000102,+0004142,-0000800,+0000466,-0002314,14:57:48.782656
0.164787,+0000028,-0000035,-0000007,+0000042,-0000095,+0004146,-0000800,+0000466,-0002314,14:57:48.782656
0.165120,+0000021,-0000034,-0000014,+0000042,-0000086,+0004147,-0000800,+0000466,-0002314,14:57:48.782656
0.165453,+0000019,+0000000,-0000004,+0000044,-0000088,+0004154,-0000786,+0000476,-0002338,14:57:48.782656
0.165786,-0000001,-0000010,+0000003,+0000055,-0000082,+0004171,-0000786,+0000476,-0002338,14:57:48.782656
0.166119,+0000024,-0000032,-0000002,+0000054,-0000082,+0004164,-0000786,+0000476,-0002338,14:57:48.782656
0.166452,+0000011,-0000048,-0000021,+0000032,-0000094,+0004139,-0000786,+0000484,-0002335,14:57:48.782656
0.166785,+0000034,-0000029,-0000013,+0000055,-0000096,+0004134,-0000786,+0000484,-0002335,14:57:48.782656
0.167118,+0000011,-0000021,-0000007,+0000057,-0000109,+0004135,-0000786,+0000484,-0002335,14:57:48.782656
0.167451,+0000013,-0000008,-0000011,+0000052,-0000091,+0004156,-0000796,+0000464,-0002300,14:57:48.782656
0.167784,+0000006,-0000013,-0000005,+0000043,-0000088,+0004156,-0000796,+0000464,-0002300,14:57:48.782656
0.168117,+0000019,-0000023,-0000005,+0000042,-0000088,+0004151,-0000796,+0000464,-0002300,14:57:48.782656
0.168450,+0000010,-0000037,-0000013,+0000052,-0000076,+0004169,-0000784,+0000476,-0002314,14:57:48.782656
0.168783,+0000027,-0000016,-0000014,+0000042,-0000083,+0004165,-0000784,+0000476,-0002314,14:57:48.782656
0.169116,+0000002,-0000005,-0000003,+0000044,-0000101,+0004150,-0000784,+0000476,-0002314,14:57:48.783654
0.169449,+0000016,-0000027,-0000008,+0000072,-0000085,+0004157,-0000776,+0000472,-0002328,14:57:48.783654
0.169782,+0000008,-0000013,-0000003,+0000042,-0000097,+0004150,-0000776,+0000472,-0002328,14:57:48.783654
0.170115,+0000022,-0000037,-0000005,+0000042,-0000092,+0004155,-0000776,+0000472,-0002328,14:57:48.783654
0.170448,+0000022,-0000024,-0000013,+0000054,-0000080,+0004160,-0000784,+0000478,-0002345,14:57:48.783654
0.170781,+0000008,-0000018,-0000010,+0000044,-0000094,+0004145,-0000784,+0000478,-0002345,14:57:48.783654
0.171114,+0000003,-0000035,-0000010,+0000052,-0000076,+0004151,-0000784,+0000478,-0002345,14:57:48.783654
0.171447,+0000007,-0000010,-0000008,+0000053,-0000102,+0004140,-0000770,+0000468,-0002335,14:57:48.783654
0.171780,+0000016,-0000015,-0000015,+0000034,-0000102,+0004152,-0000770,+0000468,-0002335,14:57:48.783654
0.172113,+0000013,-0000019,-0000019,+0000030,-0000085,+0004141,-0000770,+0000468,-0002335,14:57:48.783654
0.172446,+0000017,-0000032,-0000004,+0000040,-0000084,+0004141,-0000780,+0000478,-0002319,14:57:48.783654
0.172779,+0000002,-0000030,-0000008,+0000055,-0000085,+0004138,-0000780,+0000478,-0002319,14:57:48.783654
0.173112,+0000016,-0000013,-0000021,+0000055,-0000077,+0004162,-0000780,+0000478,-0002319,14:57:48.783654
0.173445,+0000008,-0000008,+0000001,+0000060,-0000095,+0004146,-0000788,+0000476,-0002313,14:57:48.783654
0.173778,+0000011,-0000021,-0000010,+0000054,-0000083,+0004147,-0000788,+0000476,-0002313,14:57:48.783654
0.174111,+0000025,-0000024,-0000003,+0000060,-0000088,+0004147,-0000788,+0000476,-0002313,14:57:48.783654
0.174444,+0000023,-0000042,-0000015,+0000062,-0000103,+0004138,-0000794,+0000458,-0002331,14:57:48.783654
0.174777,+0000004,-0000019,-0000005,+0000057,-0000096,+0004152,-0000794,+0000458,-0002331,14:57:48.783654
0.175110,+0000017,-0000015,-0000013,+0000040,-0000084,+0004168,-0000794,+0000458,-0002331,14:57:48.783654
0.175443,-0000003,-0000012,-0000007,+0000044,-0000082,+0004173,-0000790,+0000472,-0002327,14:57:48.784656
0.175776,-0000005,-0000002,+0000003,+0000050,-0000071,+0004144,-0000790,+0000472,-0002327,14:57:48.784656
0.176109,+0000036,-0000053,-0000019,+0000049,-0000080,+0004136,-0000790,+0000472,-0002327,14:57:48.784656
0.176442,+0000011,-0000026,-0000005,+0000051,-0000091,+0004152,-0000792,+0000454,-0002316,14:57:48.784656
0.176775,+0000016,-0000026,-0000007,+0000036,-0000112,+0004162,-0000792,+0000454,-0002316,14:57:48.784656
0.177108,+0000005,-0000027,-0000013,+0000036,-0000113,+0004153,-0000792,+0000454,-0002316,14:57:48.784656
0.177441,+0000009,-0000020,-0000008,+0000055,-0000082,+0004144,-0000796,+0000454,-0002315,14:57:48.784656
0.177774,+0000010,-0000024,-0000004,+0000050,-0000090,+0004154,-0000796,+0000454,-0002315,14:57:48.784656
0.178107,+0000010,-0000032,-0000003,+0000060,-0000079,+0004153,-0000796,+0000454,-0002315,14:57:48.784656
0.178440,+0000024,-0000029,-0000015,+0000054,-0000075,+0004148,-0000802,+0000484,-0002305,14:57:48.784656
0.178773,+0000005,-0000029,-0000014,+0000049,-0000104,+0004142,-0000802,+0000484,-0002305,14:57:48.784656
0.179106,+0000002,+0000011,+0000000,+0000039,-0000107,+0004152,-0000802,+0000484,-0002305,14:57:48.784656
0.179439,-0000006,-0000007,-0000013,+0000049,-0000078,+0004149,-0000782,+0000464,-0002290,14:57:48.784656
0.179772,+0000027,-0000034,-0000010,+0000054,-0000102,+0004150,-0000782,+0000464,-0002290,14:57:48.784656
0.180105,+0000022,-0000040,-0000013,+0000060,-0000090,+0004131,-0000782,+0000464,-0002290,14:57:48.784656
0.180438,+0000011,-0000021,-0000007,+0000046,-0000072,+0004160,-0000806,+0000466,-0002327,14:57:48.784656
0.180771,+0000021,-0000003,-0000005,+0000041,-0000089,+0004152,-0000806,+0000466,-0002327,14:57:48.784656
0.181104,-0000001,-0000023,-0000013,+0000034,-0000071,+0004153,-0000806,+0000466,-0002327,14:57:48.784656
0.181437,+0000005,-0000028,-0000014,+0000042,-0000091,+0004168,-0000806,+0000482,-0002308,14:57:48.784656
0.181770,+0000020,-0000020,-0000002,+0000036,-0000089,+0004162,-0000806,+0000482,-0002308,14:57:48.784656
0.182103,+0000019,-0000040,-0000021,+0000048,-0000066,+0004143,-0000806,+0000482,-0002308,14:57:48.784656
0.182436,+0000021,-0000019,-0000018,+0000052,-0000065,+0004146,-0000798,+0000470,-0002326,14:57:48.785657
0.182769,+0000002,-0000018,+0000003,+0000061,-0000100,+0004152,-0000798,+0000470,-0002326,14:57:48.785657
0.183102,+0000011,-0000014,-0000007,+0000055,-0000077,+0004146,-0000798,+0000470,-0002326,14:57:48.785657
0.183435,+0000002,-0000028,-0000011,+0000047,-0000107,+0004154,-0000804,+0000448,-0002315,14:57:48.785657
0.183768,+0000009,-0000019,-0000007,+0000058,-0000103,+0004158,-0000804,+0000448,-0002315,14:57:48.785657
0.184101,+0000018,-0000021,-0000016,+0000058,-0000100,+0004139,-0000804,+0000448,-0002315,14:57:48.785657
0.184434,+0000011,-0000021,-0000002,+0000055,-0000091,+0004139,-0000794,+0000478,-0002306,14:57:48.785657
0.184767,+0000016,-0000023,-0000018,+0000060,-0000090,+0004153,-0000794,+0000478,-0002306,14:57:48.786665
0.185100,-0000017,-0000011,+0000004,+0000049,-0000087,+0004165,-0000794,+0000478,-0002306,14:57:48.786665
0.185433,+0000018,-0000016,-0000011,+0000068,-0000101,+0004156,-0000820,+0000478,-0002311,14:57:48.786665
0.185766,+0000016,-0000031,-0000007,+0000030,-0000087,+0004157,-0000820,+0000478,-0002311,14:57:48.786665
0.186099,+0000027,-0000035,-0000011,+0000060,-0000080,+0004140,-0000820,+0000478,-0002311,14:57:48.786665
0.186432,+0000011,-0000028,-0000007,+0000060,-0000072,+0004143,-0000784,+0000494,-0002316,14:57:48.786665
0.186765,+0000021,-0000023,-0000015,+0000058,-0000083,+0004155,-0000784,+0000494,-0002316,14:57:48.786665
0.187098,-0000003,-0000010,+0000006,+0000049,-0000092,+0004144,-0000784,+0000494,-0002316,14:57:48.786665
0.187431,+0000014,-0000013,-0000013,+0000053,-0000071,+0004144,-0000788,+0000482,-0002328,14:57:48.786665
0.187764,+0000003,-0000029,-0000003,+0000047,-0000066,+0004147,-0000788,+0000482,-0002328,14:57:48.786665
0.188097,+0000021,-0000024,-0000015,+0000049,-0000100,+0004145,-0000788,+0000482,-0002328,14:57:48.786665
0.188430,+0000032,-0000034,-0000008,+0000026,-0000061,+0004142,-0000800,+0000480,-0002307,14:57:48.786665
0.188763,-0000003,-0000018,-0000013,+0000037,-0000075,+0004162,-0000800,+0000480,-0002307,14:57:48.786665
0.189096,-0000004,-0000011,-0000008,+0000051,-0000091,+0004135,-0000800,+0000480,-0002307,14:57:48.786665
0.189429,+0000006,-0000026,-0000003,+0000056,-0000063,+0004142,-0000796,+0000478,-0002336,14:57:48.786665
0.189762,+0000014,-0000029,-0000021,+0000053,-0000076,+0004137,-0000796,+0000478,-0002336,14:57:48.786665
0.190095,+0000015,-0000032,+0000001,+0000043,-0000088,+0004131,-0000796,+0000478,-0002336,14:57:48.786665
0.190428,+0000029,-0000039,-0000015,+0000041,-0000105,+0004146,-0000792,+0000478,-0002301,14:57:48.786665
0.190761,+0000005,+0000000,-0000008,+0000050,-0000100,+0004149,-0000792,+0000478,-0002301,14:57:48.786665
0.191094,+0000003,-0000011,-0000016,+0000052,-0000092,+0004156,-0000792,+0000478,-0002301,14:57:48.786665
0.191427,+0000011,-0000031,+0000001,+0000054,-0000088,+0004153,-0000802,+0000470,-0002320,14:57:48.786665
0.191760,+0000014,-0000040,-0000023,+0000048,-0000069,+0004158,-0000802,+0000470,-0002320,14:57:48.787655
0.192093,+0000020,-0000019,+0000000,+0000054,-0000094,+0004157,-0000802,+0000470,-0002320,14:57:48.787655
0.192426,+0000021,-0000026,-0000027,+0000039,-0000067,+0004152,-0000806,+0000480,-0002352,14:57:48.787655
0.192759,+0000002,+0000011,+0000001,+0000037,-0000100,+0004164,-0000806,+0000480,-0002352,14:57:48.789655
0.193092,+0000011,-0000024,-0000012,+0000052,-0000085,+0004157,-0000806,+0000480,-0002352,14:57:48.790654
0.193427,+0000019,-0000030,-0000013,+0000055,-0000091,+0004152,-0000790,+0000476,-0002307,14:57:48.822059
0.193759,+0000014,-0000032,+0000003,+0000052,-0000090,+0004145,-0000790,+0000476,-0002307,14:57:48.822059
0.194096,+0000026,-0000034,-0000015,+0000062,-0000088,+0004166,-0000790,+0000476,-0002307,14:57:48.822059
0.194607,+0000010,-0000010,+0000001,+0000046,-0000078,+0004144,-0000792,+0000492,-0002331,14:57:48.822059
0.194903,+0000013,-0000032,-0000013,+0000046,-0000078,+0004144,-0000792,+0000492,-0002331,14:57:48.822059
0.195174,-0000003,+0000004,+0000001,+0000018,-0000089,+0004141,-0000792,+0000492,-0002331,14:57:48.822059
0.195622,+0000028,-0000024,-0000005,+0000039,-0000106,+0004151,-0000792,+0000490,-0002306,14:57:48.822059
0.195894,+0000008,-0000027,-0000007,+0000034,-0000090,+0004162,-0000792,+0000490,-0002306,14:57:48.822059
0.196090,+0000008,-0000031,-0000006,+0000049,-0000064,+0004152,-0000792,+0000490,-0002306,14:57:48.822059
0.196423,+0000017,-0000026,-0000018,+0000040,-0000100,+0004154,-0000798,+0000464,-0002325,14:57:48.822059
0.196755,+0000019,-0000021,-0000010,+0000038,-0000092,+0004141,-0000798,+0000464,-0002325,14:57:48.822059
0.197089,+0000011,-0000040,+0000004,+0000047,-0000105,+0004149,-0000798,+0000464,-0002325,14:57:48.823074
0.197421,+0000014,-0000024,-0000015,+0000039,-0000080,+0004143,-0000796,+0000466,-0002287,14:57:48.823074
0.197754,+0000038,-0000023,-0000014,+0000022,-0000095,+0004173,-0000796,+0000466,-0002287,14:57:48.823074
0.198088,+0000018,-0000029,-0000005,+0000043,-0000084,+0004154,-0000796,+0000466,-0002287,14:57:48.823074
0.198420,+0000008,-0000002,-0000012,+0000054,-0000073,+0004144,-0000790,+0000472,-0002335,14:57:48.823074
0.198753,+0000008,-0000019,+0000000,+0000039,-0000063,+0004137,-0000790,+0000472,-0002335,14:57:48.823074
0.199086,+0000016,-0000029,-0000011,+0000048,-0000066,+0004156,-0000790,+0000472,-0002335,14:57:48.823074
0.199419,+0000025,-0000032,-0000016,+0000037,-0000074,+0004147,-0000780,+0000474,-0002306,14:57:48.823074
0.199753,+0000021,-0000027,-0000002,+0000042,-0000089,+0004150,-0000780,+0000474,-0002306,14:57:48.823074
0.200085,+0000016,-0000034,-0000018,+0000038,-0000085,+0004141,-0000780,+0000474,-0002306,14:57:48.823074
0.200418,-0000008,-0000010,-0000008,+0000032,-0000107,+0004163,-0000814,+0000476,-0002332,14:57:48.823074
0.200751,+0000019,-0000007,-0000006,+0000046,-0000079,+0004141,-0000814,+0000476,-0002332,14:57:48.823074
0.201084,+0000006,-0000026,-0000003,+0000038,-0000109,+0004152,-0000814,+0000476,-0002332,14:57:48.823074
0.201417,+0000021,-0000029,-0000014,+0000053,-0000083,+0004152,-0000812,+0000484,-0002319,14:57:48.823074
0.201750,+0000035,-0000032,-0000005,+0000036,-0000092,+0004158,-0000812,+0000484,-0002319,14:57:48.824071
0.202083,+0000008,-0000034,-0000018,+0000038,-0000093,+0004161,-0000812,+0000484,-0002319,14:57:48.824071
0.202416,-0000005,-0000002,-0000007,+0000036,-0000102,+0004158,-0000792,+0000476,-0002328,14:57:48.824071
0.202749,+0000019,-0000013,-0000015,+0000055,-0000097,+0004153,-0000792,+0000476,-0002328,14:57:48.824071
0.203082,+0000019,-0000018,-0000008,+0000041,-0000098,+0004161,-0000792,+0000476,-0002328,14:57:48.824071
0.203415,+0000013,-0000035,-0000005,+0000047,-0000111,+0004160,-0000782,+0000462,-0002332,14:57:48.824071
0.203801,+0000024,-0000037,-0000005,+0000040,-0000085,+0004150,-0000782,+0000462,-0002332,14:57:48.824071
0.204081,+0000019,-0000026,-0000013,+0000046,-0000070,+0004151,-0000782,+0000462,-0002332,14:57:48.824071
0.204414,+0000008,-0000010,-0000005,+0000061,-0000076,+0004143,-0000788,+0000460,-0002327,14:57:48.824071
0.204747,-0000001,-0000011,+0000004,+0000057,-0000091,+0004147,-0000788,+0000460,-0002327,14:57:48.824071
0.205080,+0000016,-0000039,-0000012,+0000046,-0000090,+0004152,-0000788,+0000460,-0002327,14:57:48.824071
0.205413,+0000025,-0000037,-0000002,+0000053,-0000094,+0004170,-0000798,+0000472,-0002322,14:57:48.824071
0.205747,+0000020,-0000047,-0000019,+0000044,-0000085,+0004161,-0000798,+0000472,-0002322,14:57:48.824071
0.206079,+0000013,-0000024,+0000000,+0000058,-0000085,+0004166,-0000798,+0000472,-0002322,14:57:48.824071
0.206472,-0000004,+0000000,+0000000,+0000056,-0000104,+0004133,-0000788,+0000470,-0002312,14:57:48.824071
0.206775,+0000017,-0000021,-0000012,+0000051,-0000072,+0004156,-0000788,+0000470,-0002312,14:57:48.825073
0.207078,+0000011,-0000010,+0000006,+0000042,-0000071,+0004129,-0000788,+0000470,-0002312,14:57:48.825073
0.207411,+0000000,-0000024,-0000013,+0000041,-0000075,+0004152,-0000800,+0000482,-0002326,14:57:48.825073
0.207744,+0000024,-0000021,-0000001,+0000045,-0000088,+0004157,-0000800,+0000482,-0002326,14:57:48.825073
0.208078,+0000014,-0000005,-0000008,+0000051,-0000092,+0004157,-0000800,+0000482,-0002326,14:57:48.825073
0.208410,-0000001,-0000015,-0000001,+0000053,-0000085,+0004168,-0000800,+0000460,-0002318,14:57:48.825073
0.208745,+0000016,-0000023,-0000016,+0000035,-0000093,+0004161,-0000800,+0000460,-0002318,14:57:48.825073
0.209077,+0000017,-0000017,-0000002,+0000051,-0000094,+0004142,-0000800,+0000460,-0002318,14:57:48.825073
0.209409,+0000013,-0000044,-0000014,+0000054,-0000090,+0004129,-0000798,+0000482,-0002288,14:57:48.825073
0.209742,+0000028,-0000018,-0000011,+0000071,-0000082,+0004154,-0000798,+0000482,-0002288,14:57:48.825073
0.210075,+0000000,-0000021,-0000013,+0000060,-0000097,+0004171,-0000798,+0000482,-0002288,14:57:48.825073
0.210409,+0000008,-0000004,+0000004,+0000040,-0000079,+0004144,-0000804,+0000472,-0002331,14:57:48.825073
0.210741,+0000021,-0000015,-0000014,+0000048,-0000089,+0004160,-0000804,+0000472,-0002331,14:57:48.825073
0.211074,+0000022,-0000027,-0000004,+0000061,-0000106,+0004147,-0000804,+0000472,-0002331,14:57:48.825073
0.211407,+0000029,-0000024,-0000018,+0000048,-0000076,+0004150,-0000804,+0000476,-0002312,14:57:48.825073
0.211740,+0000008,-0000005,-0000004,+0000085,-0000086,+0004159,-0000804,+0000476,-0002312,14:57:48.825073
0.212073,+0000018,-0000024,-0000008,+0000042,-0000085,+0004155,-0000804,+0000476,-0002312,14:57:48.825073
0.212406,+0000018,-0000008,-0000002,+0000050,-0000085,+0004124,-0000808,+0000470,-0002340,14:57:48.825073
0.212739,+0000002,-0000018,+0000000,+0000043,-0000091,+0004148,-0000808,+0000470,-0002340,14:57:48.825073
0.213072,+0000030,-0000031,-0000005,+0000076,-0000096,+0004143,-0000808,+0000470,-0002340,14:57:48.826079
0.213405,+0000024,-0000029,-0000006,+0000045,-0000108,+0004169,-0000798,+0000486,-0002325,14:57:48.826079
0.213738,+0000000,-0000020,-0000010,+0000043,-0000098,+0004158,-0000798,+0000486,-0002325,14:57:48.826079
0.214071,+0000016,-0000010,-0000012,+0000068,-0000084,+0004168,-0000798,+0000486,-0002325,14:57:48.826079
0.214404,+0000008,-0000013,-0000005,+0000035,-0000084,+0004138,-0000792,+0000474,-0002331,14:57:48.826079
0.214737,+0000004,-0000026,-0000010,+0000052,-0000100,+0004156,-0000792,+0000474,-0002331,14:57:48.826079
0.215070,+0000021,-0000015,-0000001,+0000039,-0000068,+0004153,-0000792,+0000474,-0002331,14:57:48.826079
0.215403,+0000008,-0000042,-0000011,+0000042,-0000070,+0004161,-0000784,+0000468,-0002338,14:57:48.826079
0.215736,+0000029,-0000028,-0000011,+0000052,-0000092,+0004158,-0000784,+0000468,-0002338,14:57:48.826079
0.216069,+0000007,-0000024,-0000005,+0000052,-0000081,+0004152,-0000784,+0000468,-0002338,14:57:48.826079
0.216402,+0000000,-0000013,-0000013,+0000045,-0000079,+0004149,-0000800,+0000490,-0002323,14:57:48.826079
0.216735,+0000006,-0000030,-0000005,+0000049,-0000071,+0004150,-0000800,+0000490,-0002323,14:57:48.826079
0.217068,+0000011,-0000039,-0000008,+0000040,-0000119,+0004164,-0000800,+0000490,-0002323,14:57:48.826079
0.217401,+0000024,-0000029,-0000008,+0000036,-0000083,+0004148,-0000778,+0000476,-0002322,14:57:48.826079
0.217734,+0000013,-0000036,-0000011,+0000047,-0000089,+0004145,-0000778,+0000476,-0002322,14:57:48.831072
0.218067,+0000005,+0000000,+0000006,+0000062,-0000086,+0004160,-0000778,+0000476,-0002322,14:57:48.831072
0.218400,+0000006,-0000005,-0000010,+0000048,-0000115,+0004166,-0000798,+0000470,-0002314,14:57:48.831072
0.218733,+0000010,-0000026,-0000002,+0000045,-0000080,+0004160,-0000798,+0000470,-0002314,14:57:48.831072
0.219066,+0000018,-0000029,-0000001,+0000060,-0000085,+0004154,-0000798,+0000470,-0002314,14:57:48.831072
0.219399,+0000024,-0000048,-0000019,+0000041,-0000079,+0004154,-0000792,+0000472,-0002334,14:57:48.831072
0.219732,+0000008,-0000020,-0000002,+0000044,-0000091,+0004130,-0000792,+0000472,-0002334,14:57:48.831072
0.220065,+0000002,-0000002,-0000005,+0000055,-0000100,+0004142,-0000792,+0000472,-0002334,14:57:48.831072
0.220398,-0000001,-0000023,-0000007,+0000056,-0000081,+0004148,-0000778,+0000482,-0002328,14:57:48.831072
0.220731,+0000016,-0000026,-0000012,+0000040,-0000090,+0004151,-0000778,+0000482,-0002328,14:57:48.831072
0.221064,+0000024,-0000040,-0000013,+0000060,-0000093,+0004157,-0000778,+0000482,-0002328,14:57:48.831072
0.221397,+0000013,-0000028,-0000011,+0000050,-0000094,+0004136,-0000796,+0000480,-0002343,14:57:48.831072
0.221730,+0000002,-0000026,-0000011,+0000048,-0000085,+0004157,-0000796,+0000480,-0002343,14:57:48.831072
0.222063,+0000011,-0000013,-0000013,+0000048,-0000107,+0004149,-0000796,+0000480,-0002343,14:57:48.831072
0.222396,-0000003,-0000015,+0000000,+0000051,-0000084,+0004150,-0000800,+0000476,-0002319,14:57:48.831072
0.222729,+0000025,-0000026,-0000008,+0000047,-0000088,+0004138,-0000800,+0000476,-0002319,14:57:48.831072
0.223062,+0000035,-0000050,-0000016,+0000055,-0000100,+0004140,-0000800,+0000476,-0002319,14:57:48.832071
0.223395,+0000010,-0000026,-0000020,+0000061,-0000095,+0004147,-0000792,+0000482,-0002326,14:57:48.832071
0.223728,-0000003,-0000015,-0000001,+0000041,-0000086,+0004148,-0000792,+0000482,-0002326,14:57:48.832071
0.224061,+0000019,-0000009,-0000005,+0000061,-0000082,+0004154,-0000792,+0000482,-0002326,14:57:48.832071
0.224394,+0000007,-0000026,+0000000,+0000063,-0000085,+0004161,-0000792,+0000482,-0002311,14:57:48.832071
0.224727,+0000018,-0000037,-0000019,+0000041,-0000083,+0004134,-0000792,+0000482,-0002311,14:57:48.832071
0.225060,+0000030,-0000018,-0000008,+0000068,-0000094,+0004125,-0000792,+0000482,-0002311,14:57:48.832071
0.225393,+0000008,-0000023,-0000018,+0000078,-0000087,+0004143,-0000808,+0000468,-0002316,14:57:48.832071
0.225726,+0000016,-0000012,-0000011,+0000055,-0000085,+0004139,-0000808,+0000468,-0002316,14:57:48.832071
0.226059,+0000000,-0000011,-0000011,+0000055,-0000120,+0004128,-0000808,+0000468,-0002316,14:57:48.832071
0.226392,+0000011,-0000018,+0000000,+0000065,-0000095,+0004147,-0000788,+0000478,-0002337,14:57:48.832071
0.226725,+0000019,-0000029,+0000000,+0000051,-0000073,+0004150,-0000788,+0000478,-0002337,14:57:48.832071
0.227058,+0000019,-0000037,-0000008,+0000057,-0000098,+0004163,-0000788,+0000478,-0002337,14:57:48.832071
0.227391,+0000011,-0000024,-0000014,+0000054,-0000073,+0004174,-0000798,+0000472,-0002325,14:57:48.835071
0.227724,+0000004,-0000018,-0000005,+0000054,-0000092,+0004151,-0000798,+0000472,-0002325,14:57:48.835071
0.228057,+0000011,-0000013,-0000016,+0000050,-0000079,+0004160,-0000798,+0000472,-0002325,14:57:48.835071
0.228390,+0000013,-0000025,-0000011,+0000047,-0000072,+0004148,-0000786,+0000496,-0002312,14:57:48.835071
0.228723,+0000025,-0000029,+0000000,+0000050,-0000077,+0004151,-0000786,+0000496,-0002312,14:57:48.835071
0.229056,+0000019,-0000029,-0000016,+0000048,-0000084,+0004152,-0000786,+0000496,-0002312,14:57:48.835071
0.229389,+0000022,-0000027,-0000012,+0000028,-0000078,+0004166,-0000796,+0000482,-0002298,14:57:48.835071
0.229722,+0000006,-0000019,+0000000,+0000065,-0000094,+0004133,-0000796,+0000482,-0002298,14:57:48.835071
0.230055,+0000008,-0000011,-0000011,+0000047,-0000094,+0004136,-0000796,+0000482,-0002298,14:57:48.835071
0.230388,+0000019,-0000021,-0000012,+0000033,-0000073,+0004142,-0000786,+0000466,-0002338,14:57:48.835071
0.230721,+0000011,-0000020,+0000001,+0000058,-0000106,+0004138,-0000786,+0000466,-0002338,14:57:48.835071
0.231054,+0000038,-0000047,-0000016,+0000062,-0000080,+0004145,-0000786,+0000466,-0002338,14:57:48.835071
0.231387,+0000010,-0000031,-0000005,+0000050,-0000093,+0004152,-0000788,+0000472,-0002298,14:57:48.835071
0.231720,+0000019,-0000012,-0000022,+0000053,-0000110,+0004159,-0000788,+0000472,-0002298,14:57:48.836075
0.232053,+0000002,-0000018,-0000006,+0000065,-0000089,+0004160,-0000788,+0000472,-0002298,14:57:48.836075
0.232388,+0000007,-0000027,-0000005,+0000052,-0000098,+0004151,-0000790,+0000484,-0002291,14:57:48.836075
0.232719,+0000018,-0000034,+0000001,+0000046,-0000094,+0004167,-0000790,+0000484,-0002291,14:57:48.836075
0.233065,+0000024,-0000030,-0000019,+0000045,-0000080,+0004152,-0000790,+0000484,-0002291,14:57:48.836075
0.233385,+0000014,-0000023,-0000003,+0000034,-0000090,+0004157,-0000798,+0000480,-0002312,14:57:48.836075
0.233718,+0000002,-0000004,+0000009,+0000045,-0000090,+0004148,-0000798,+0000480,-0002312,14:57:48.836075
0.234064,+0000005,-0000015,-0000008,+0000044,-0000089,+0004147,-0000798,+0000480,-0002312,14:57:48.836075
0.234384,+0000019,-0000042,-0000015,+0000042,-0000082,+0004153,-0000792,+0000488,-0002306,14:57:48.836075
0.234717,+0000021,-0000029,-0000006,+0000042,-0000092,+0004145,-0000792,+0000488,-0002306,14:57:48.836075
0.235063,+0000021,-0000039,-0000027,+0000053,-0000087,+0004146,-0000792,+0000488,-0002306,14:57:48.836075
0.235383,-0000001,-0000003,-0000008,+0000049,-0000089,+0004148,-0000792,+0000462,-0002323,14:57:48.836075
0.235716,+0000019,-0000013,-0000002,+0000044,-0000097,+0004155,-0000792,+0000462,-0002323,14:57:48.836075
0.236062,+0000017,-0000016,-0000010,+0000041,-0000100,+0004152,-0000792,+0000462,-0002323,14:57:48.836075
0.236383,+0000018,-0000026,+0000004,+0000054,-0000096,+0004140,-0000800,+0000456,-0002297,14:57:48.836075
0.236715,+0000021,-0000039,-0000027,+0000048,-0000068,+0004174,-0000800,+0000456,-0002297,14:57:48.836075
0.237061,+0000011,-0000003,-0000008,+0000049,-0000096,+0004132,-0000800,+0000456,-0002297,14:57:48.836075
0.237383,-0000001,-0000018,-0000007,+0000050,-0000091,+0004152,-0000806,+0000466,-0002317,14:57:48.836075
0.237714,-0000001,-0000011,-0000007,+0000054,-0000092,+0004149,-0000806,+0000466,-0002317,14:57:48.836075
0.238054,+0000024,-0000024,-0000005,+0000042,-0000070,+0004154,-0000806,+0000466,-0002317,14:57:48.836075
0.238380,+0000016,-0000032,-0000012,+0000040,-0000083,+0004150,-0000774,+0000482,-0002321,14:57:48.836075
0.238713,+0000024,-0000023,-0000010,+0000042,-0000102,+0004162,-0000774,+0000482,-0002321,14:57:48.836075
0.239046,+0000000,-0000016,-0000007,+0000053,-0000095,+0004173,-0000774,+0000482,-0002321,14:57:48.837588
0.239380,+0000014,-0000021,-0000018,+0000043,-0000084,+0004178,-0000814,+0000482,-0002319,14:57:48.837588
0.239712,-0000011,-0000013,+0000001,+0000052,-0000107,+0004148,-0000814,+0000482,-0002319,14:57:48.837588
0.240045,+0000013,-0000015,+0000001,+0000056,-0000107,+0004132,-0000814,+0000482,-0002319,14:57:48.838602
0.240380,+0000019,-0000031,-0000005,+0000041,-0000088,+0004136,-0000796,+0000476,-0002333,14:57:48.838602
0.240711,+0000013,-0000029,-0000010,+0000066,-0000089,+0004161,-0000796,+0000476,-0002333,14:57:48.838602
0.241044,+0000019,-0000024,-0000015,+0000056,-0000095,+0004138,-0000796,+0000476,-0002333,14:57:48.838602
0.241380,+0000003,-0000026,-0000007,+0000028,-0000084,+0004127,-0000796,+0000490,-0002317,14:57:48.838602
0.241710,+0000007,-0000001,-0000008,+0000061,-0000075,+0004162,-0000796,+0000490,-0002317,14:57:48.838602
0.242043,+0000019,-0000031,+0000004,+0000048,-0000072,+0004142,-0000796,+0000490,-0002317,14:57:48.839602
0.242376,+0000026,-0000034,-0000015,+0000039,-0000100,+0004157,-0000794,+0000482,-0002329,14:57:48.839602
0.242709,+0000020,-0000040,-0000016,+0000042,-0000082,+0004155,-0000794,+0000482,-0002329,14:57:48.839602
0.243042,+0000018,-0000010,-0000010,+0000039,-0000082,+0004148,-0000794,+0000482,-0002329,14:57:48.839602
0.243379,+0000005,-0000021,+0000003,+0000056,-0000081,+0004166,-0000806,+0000470,-0002332,14:57:48.884544
0.243708,+0000021,+0000001,-0000003,+0000049,-0000101,+0004144,-0000806,+0000470,-0002332,14:57:48.884544
0.244045,+0000027,-0000027,-0000013,+0000057,-0000080,+0004160,-0000806,+0000470,-0002332,14:57:48.884544
0.244573,+0000016,-0000019,-0000008,+0000020,-0000084,+0004160,-0000788,+0000502,-0002352,14:57:48.884544
0.244867,-0000006,+0000009,+0000006,+0000045,-0000076,+0004154,-0000788,+0000502,-0002352,14:57:48.884544
0.245208,+0000009,-0000010,-0000014,+0000045,-0000093,+0004170,-0000788,+0000502,-0002352,14:57:48.884544
0.245401,+0000009,-0000020,-0000002,+0000049,-0000092,+0004156,-0000788,+0000502,-0002352,14:57:48.884544
0.246083,+0000018,-0000027,-0000011,+0000041,-0000099,+0004147,-0000788,+0000502,-0002352,14:57:48.884544
0.246376,+0000021,-0000007,-0000005,+0000052,-0000084,+0004155,-0000788,+0000502,-0002352,14:57:48.884544
0.246707,+0000005,-0000027,-0000005,+0000056,-0000084,+0004138,-0000792,+0000484,-0002292,14:57:48.884544
0.247111,+0000008,-0000021,-0000013,+0000032,-0000069,+0004151,-0000792,+0000484,-0002292,14:57:48.884544
0.247379,+0000006,-0000015,+0000000,+0000044,-0000088,+0004153,-0000792,+0000484,-0002292,14:57:48.884544
0.247704,+0000016,-0000040,-0000014,+0000052,-0000092,+0004148,-0000796,+0000460,-0002311,14:57:48.884544
0.248069,+0000024,-0000041,-0000005,+0000041,-0000084,+0004146,-0000796,+0000460,-0002311,14:57:48.884544
0.248378,+0000021,-0000029,-0000011,+0000041,-0000107,+0004147,-0000796,+0000460,-0002311,14:57:48.884544
0.248704,+0000006,-0000032,-0000002,+0000047,-0000111,+0004130,-0000790,+0000480,-0002326,14:57:48.884544
0.249037,+0000000,-0000013,-0000002,+0000056,-0000115,+0004173,-0000790,+0000480,-0002326,14:57:48.884544
0.249375,+0000016,-0000010,-0000008,+0000062,-0000098,+0004152,-0000790,+0000480,-0002326,14:57:48.884544
0.249702,+0000005,-0000032,-0000013,+0000062,-0000084,+0004141,-0000768,+0000470,-0002310,14:57:48.884544
0.250035,+0000025,-0000034,-0000010,+0000052,-0000075,+0004161,-0000768,+0000470,-0002310,14:57:48.884544
0.250374,+0000004,-0000026,-0000010,+0000052,-0000091,+0004142,-0000768,+0000470,-0002310,14:57:48.884544
0.250703,+0000042,-0000008,-0000007,+0000064,-0000096,+0004143,-0000780,+0000466,-0002316,14:57:48.884544
0.251035,-0000005,-0000016,-0000012,+0000050,-0000082,+0004162,-0000780,+0000466,-0002316,14:57:48.884544
0.251375,+0000000,-0000020,+0000009,+0000048,-0000083,+0004139,-0000780,+0000466,-0002316,14:57:48.884544
0.251704,+0000015,-0000029,-0000013,+0000054,-0000087,+0004133,-0000768,+0000480,-0002310,14:57:48.884544
0.252033,+0000030,-0000034,-0000021,+0000049,-0000082,+0004160,-0000768,+0000480,-0002310,14:57:48.884544
0.252372,+0000002,-0000031,-0000014,+0000043,-0000070,+0004153,-0000768,+0000480,-0002310,14:57:48.884544
0.252699,-0000011,-0000013,-0000004,+0000043,-0000089,+0004145,-0000800,+0000468,-0002301,14:57:48.884544
0.253032,+0000005,-0000023,-0000005,+0000025,-0000102,+0004148,-0000800,+0000468,-0002301,14:57:48.884544
0.253371,+0000008,-0000016,-0000005,+0000031,-0000088,+0004147,-0000800,+0000468,-0002301,14:57:48.884544
0.253698,+0000008,-0000010,-0000016,+0000060,-0000085,+0004147,-0000786,+0000482,-0002308,14:57:48.884544
0.254031,+0000019,-0000048,-0000023,+0000055,-0000084,+0004168,-0000786,+0000482,-0002308,14:57:48.884544
0.254370,+0000008,-0000032,-0000010,+0000049,-0000081,+0004141,-0000786,+0000482,-0002308,14:57:48.885559
0.254697,+0000022,-0000027,-0000007,+0000051,-0000083,+0004159,-0000774,+0000482,-0002342,14:57:48.885559
0.255030,-0000006,-0000004,-0000003,+0000036,-0000086,+0004148,-0000774,+0000482,-0002342,14:57:48.885559
0.255369,+0000014,-0000010,-0000008,+0000048,-0000107,+0004159,-0000774,+0000482,-0002342,14:57:48.885559
0.255696,+0000010,-0000027,-0000005,+0000033,-0000084,+0004164,-0000784,+0000476,-0002336,14:57:48.885559
0.256029,+0000024,-0000037,-0000002,+0000063,-0000097,+0004160,-0000784,+0000476,-0002336,14:57:48.885559
0.256368,+0000011,-0000034,-0000022,+0000068,-0000084,+0004172,-0000784,+0000476,-0002336,14:57:48.885559
0.256695,+0000000,-0000013,-0000010,+0000050,-0000087,+0004154,-0000772,+0000460,-0002313,14:57:48.885559
0.257028,+0000008,-0000014,-0000005,+0000056,-0000093,+0004143,-0000772,+0000460,-0002313,14:57:48.885559
0.257367,-0000006,-0000002,-0000005,+0000055,-0000093,+0004157,-0000772,+0000460,-0002313,14:57:48.885559
0.257694,+0000018,-0000026,-0000011,+0000054,-0000092,+0004144,-0000786,+0000470,-0002312,14:57:48.885559
0.258027,+0000016,-0000027,+0000000,+0000044,-0000075,+0004154,-0000786,+0000470,-0002312,14:57:48.885559
0.258367,+0000020,-0000032,-0000026,+0000040,-0000065,+0004156,-0000786,+0000470,-0002312,14:57:48.885559
0.258693,+0000007,-0000031,-0000007,+0000049,-0000080,+0004151,-0000784,+0000476,-0002322,14:57:48.885559
0.259026,+0000017,-0000028,-0000011,+0000060,-0000082,+0004148,-0000784,+0000476,-0002322,14:57:48.885559
0.259359,+0000013,-0000019,-0000015,+0000051,-0000097,+0004133,-0000784,+0000476,-0002322,14:57:48.885559
0.259692,+0000005,-0000031,-0000003,+0000045,-0000086,+0004140,-0000780,+0000470,-0002298,14:57:48.886561
0.260025,+0000011,-0000021,+0000003,+0000046,-0000090,+0004172,-0000780,+0000470,-0002298,14:57:48.886561
0.260358,+0000022,-0000037,-0000020,+0000033,-0000099,+0004139,-0000780,+0000470,-0002298,14:57:48.886561
0.260691,+0000014,-0000019,-0000003,+0000043,-0000077,+0004148,-0000780,+0000458,-0002320,14:57:48.886561
0.261024,-0000001,+0000003,+0000000,+0000041,-0000070,+0004152,-0000780,+0000458,-0002320,14:57:48.886561
0.261357,+0000011,-0000018,-0000010,+0000050,-0000066,+0004154,-0000780,+0000458,-0002320,14:57:48.886561
0.261690,-0000001,-0000021,-0000005,+0000057,-0000095,+0004128,-0000790,+0000458,-0002352,14:57:48.886561
0.262023,+0000022,-0000042,-0000014,+0000061,-0000094,+0004114,-0000790,+0000458,-0002352,14:57:48.886561
0.262356,+0000021,-0000031,-0000015,+0000046,-0000087,+0004152,-0000790,+0000458,-0002352,14:57:48.886561
0.262689,+0000013,-0000010,-0000013,+0000044,-0000089,+0004154,-0000774,+0000462,-0002334,14:57:48.886561
0.263022,+0000002,-0000020,-0000008,+0000058,-0000087,+0004154,-0000774,+0000462,-0002334,14:57:48.886561
0.263355,+0000010,-0000031,-0000010,+0000065,-0000072,+0004141,-0000774,+0000462,-0002334,14:57:48.886561
0.263688,+0000025,-0000011,-0000005,+0000056,-0000085,+0004145,-0000782,+0000466,-0002316,14:57:48.886561
0.264021,+0000011,-0000043,-0000010,+0000055,-0000095,+0004161,-0000782,+0000466,-0002316,14:57:48.886561
0.264354,+0000030,-0000024,-0000005,+0000055,-0000083,+0004152,-0000782,+0000466,-0002316,14:57:48.886561
0.264687,+0000014,-0000013,-0000008,+0000033,-0000100,+0004145,-0000768,+0000450,-0002314,14:57:48.886561
0.265020,-0000001,-0000014,-0000015,+0000060,-0000091,+0004163,-0000768,+0000450,-0002314,14:57:48.886561
0.265353,+0000021,-0000012,-0000005,+0000050,-0000103,+0004169,-0000768,+0000450,-0002314,14:57:48.886561
0.265686,+0000014,-0000042,-0000014,+0000052,-0000109,+0004160,-0000786,+0000466,-0002324,14:57:48.886561
0.266019,+0000004,-0000019,+0000001,+0000055,-0000088,+0004162,-0000786,+0000466,-0002324,14:57:48.886561
0.266352,+0000013,-0000018,-0000007,+0000049,-0000071,+0004148,-0000786,+0000466,-0002324,14:57:48.886561
0.266685,+0000011,-0000026,-0000008,+0000062,-0000083,+0004133,-0000772,+0000456,-0002309,14:57:48.886561
0.267018,+0000017,-0000008,-0000010,+0000045,-0000103,+0004168,-0000772,+0000456,-0002309,14:57:48.886561
0.267351,+0000011,-0000019,-0000007,+0000041,-0000074,+0004151,-0000772,+0000456,-0002309,14:57:48.886561
0.267684,+0000019,-0000031,-0000005,+0000047,-0000091,+0004155,-0000780,+0000468,-0002307,14:57:48.886561
0.268017,+0000018,-0000044,-0000024,+0000024,-0000135,+0004149,-0000780,+0000468,-0002307,14:57:48.886561
0.268350,+0000016,-0000011,+0000004,+0000036,-0000085,+0004156,-0000780,+0000468,-0002307,14:57:48.887559
0.268683,+0000006,-0000016,-0000022,+0000050,-0000085,+0004156,-0000792,+0000482,-0002333,14:57:48.887559
0.269016,+0000016,-0000024,-0000007,+0000044,-0000086,+0004166,-0000792,+0000482,-0002333,14:57:48.887559
0.269349,+0000007,-0000026,-0000011,+0000053,-0000087,+0004154,-0000792,+0000482,-0002333,14:57:48.887559
0.269682,+0000022,-0000031,-0000008,+0000051,-0000072,+0004140,-0000774,+0000480,-0002325,14:57:48.887559
0.270015,+0000017,-0000029,-0000012,+0000043,-0000055,+0004153,-0000774,+0000480,-0002325,14:57:48.887559
0.270348,+0000021,-0000030,-0000011,+0000033,-0000090,+0004164,-0000774,+0000480,-0002325,14:57:48.887559
0.270681,-0000001,-0000023,-0000007,+0000047,-0000085,+0004166,-0000798,+0000458,-0002329,14:57:48.887559
0.271014,+0000004,-0000007,-0000013,+0000036,-0000091,+0004136,-0000798,+0000458,-0002329,14:57:48.887559
0.271347,+0000008,-0000029,-0000011,+0000055,-0000096,+0004149,-0000798,+0000458,-0002329,14:57:48.887559
0.271680,+0000017,-0000037,-0000016,+0000048,-0000097,+0004163,-0000796,+0000472,-0002297,14:57:48.888558
0.272013,+0000019,-0000029,-0000005,+0000060,-0000106,+0004161,-0000796,+0000472,-0002297,14:57:48.888558
0.272346,+0000006,-0000019,-0000013,+0000052,-0000083,+0004148,-0000796,+0000472,-0002297,14:57:48.888558
0.272679,+0000019,-0000026,-0000015,+0000052,-0000087,+0004165,-0000798,+0000482,-0002340,14:57:48.888558
0.273012,+0000011,-0000013,+0000000,+0000052,-0000086,+0004160,-0000798,+0000482,-0002340,14:57:48.888558
0.273345,+0000005,-0000026,-0000005,+0000050,-0000084,+0004174,-0000798,+0000482,-0002340,14:57:48.888558
0.273678,+0000028,-0000042,-0000010,+0000024,-0000103,+0004145,-0000798,+0000488,-0002309,14:57:48.888558
0.274011,+0000021,-0000026,-0000005,+0000052,-0000095,+0004168,-0000798,+0000488,-0002309,14:57:48.888558
0.274344,+0000017,-0000024,-0000016,+0000048,-0000104,+0004146,-0000798,+0000488,-0002309,14:57:48.888558
0.274677,+0000005,+0000006,+0000006,+0000052,-0000099,+0004141,-0000792,+0000470,-0002322,14:57:48.888558
0.275010,+0000011,-0000024,-0000018,+0000023,-0000086,+0004157,-0000792,+0000470,-0002322,14:57:48.888558
0.275343,+0000005,-0000018,+0000003,+0000039,-0000069,+0004148,-0000792,+0000470,-0002322,14:57:48.888558
0.275676,+0000035,-0000045,-0000015,+0000051,-0000080,+0004139,-0000800,+0000452,-0002304,14:57:48.888558
0.276009,+0000014,-0000039,-0000017,+0000052,-0000079,+0004138,-0000800,+0000452,-0002304,14:57:48.888558
0.276342,-0000006,-0000015,-0000016,+0000046,-0000099,+0004156,-0000800,+0000452,-0002304,14:57:48.888558
0.276675,+0000017,-0000018,+0000001,+0000045,-0000079,+0004151,-0000772,+0000458,-0002328,14:57:48.888558
0.277008,+0000013,-0000029,-0000005,+0000068,-0000093,+0004147,-0000772,+0000458,-0002328,14:57:48.888558
0.277341,+0000020,-0000026,+0000003,+0000073,-0000078,+0004165,-0000772,+0000458,-0002328,14:57:48.888558
0.277674,+0000008,-0000037,-0000008,+0000056,-0000089,+0004152,-0000798,+0000472,-0002330,14:57:48.889559
0.278007,+0000028,-0000024,-0000021,+0000042,-0000094,+0004146,-0000798,+0000472,-0002330,14:57:48.889559
0.278340,+0000003,-0000015,-0000008,+0000050,-0000095,+0004152,-0000798,+0000472,-0002330,14:57:48.889559
0.278673,+0000003,-0000016,+0000001,+0000037,-0000081,+0004141,-0000788,+0000472,-0002306,14:57:48.889559
0.279006,+0000011,-0000018,-0000013,+0000040,-0000094,+0004153,-0000788,+0000472,-0002306,14:57:48.889559
0.279339,+0000022,-0000024,-0000013,+0000042,-0000104,+0004147,-0000788,+0000472,-0002306,14:57:48.894555
0.279672,+0000014,-0000005,-0000005,+0000054,-0000072,+0004138,-0000792,+0000466,-0002328,14:57:48.894555
0.280005,+0000011,-0000022,-0000010,+0000048,-0000076,+0004161,-0000792,+0000466,-0002328,14:57:48.894555
0.280338,+0000011,-0000010,+0000000,+0000049,-0000083,+0004140,-0000792,+0000466,-0002328,14:57:48.894555
0.280671,-0000004,-0000007,-0000011,+0000032,-0000092,+0004148,-0000786,+0000478,-0002330,14:57:48.894555
0.281004,+0000019,-0000012,-0000008,+0000045,-0000079,+0004155,-0000786,+0000478,-0002330,14:57:48.894555
0.281337,+0000022,-0000040,-0000017,+0000029,-0000081,+0004142,-0000786,+0000478,-0002330,14:57:48.894555
0.281670,+0000013,-0000032,-0000007,+0000036,-0000095,+0004149,-0000782,+0000464,-0002309,14:57:48.894555
0.282003,+0000011,-0000018,-0000012,+0000056,-0000104,+0004154,-0000782,+0000464,-0002309,14:57:48.894555
0.282336,+0000005,-0000015,-0000005,+0000055,-0000096,+0004145,-0000782,+0000464,-0002309,14:57:48.894555
0.282669,+0000014,-0000024,-0000011,+0000054,-0000092,+0004155,-0000792,+0000464,-0002301,14:57:48.894555
0.283002,+0000005,-0000016,+0000003,+0000045,-0000080,+0004153,-0000792,+0000464,-0002301,14:57:48.894555
0.283335,+0000025,-0000040,-0000013,+0000044,-0000094,+0004143,-0000792,+0000464,-0002301,14:57:48.894555
0.283668,+0000017,-0000031,-0000010,+0000043,-0000090,+0004164,-0000792,+0000472,-0002326,14:57:48.894555
0.284001,+0000024,-0000026,-0000018,+0000051,-0000082,+0004164,-0000792,+0000472,-0002326,14:57:48.894555
0.284334,+0000005,-0000018,-0000002,+0000051,-0000085,+0004168,-0000792,+0000472,-0002326,14:57:48.894555
0.284667,+0000005,-0000020,-0000017,+0000046,-0000091,+0004161,-0000794,+0000466,-0002319,14:57:48.894555
0.285000,+0000005,-0000018,-0000008,+0000055,-0000094,+0004155,-0000794,+0000466,-0002319,14:57:48.894555
0.285333,+0000021,-0000037,-0000014,+0000063,-0000117,+0004157,-0000794,+0000466,-0002319,14:57:48.894555
0.285666,+0000035,-0000031,-0000015,+0000022,-0000105,+0004142,-0000792,+0000476,-0002316,14:57:48.894555
0.285999,+0000005,-0000018,-0000005,+0000039,-0000097,+0004158,-0000792,+0000476,-0002316,14:57:48.895562
0.286332,+0000020,-0000024,-0000015,+0000053,-0000096,+0004157,-0000792,+0000476,-0002316,14:57:48.895562
0.286665,+0000003,-0000013,+0000001,+0000041,-0000082,+0004139,-0000792,+0000472,-0002337,14:57:48.895562
0.286998,+0000014,-0000037,-0000005,+0000053,-0000088,+0004162,-0000792,+0000472,-0002337,14:57:48.895562
0.287331,+0000018,-0000023,-0000013,+0000053,-0000084,+0004151,-0000792,+0000472,-0002337,14:57:48.895562
0.287664,+0000022,-0000045,-0000010,+0000041,-0000098,+0004144,-0000796,+0000470,-0002334,14:57:48.895562
0.287997,+0000018,-0000021,-0000018,+0000038,-0000085,+0004142,-0000796,+0000470,-0002334,14:57:48.895562
0.288330,+0000022,-0000013,-0000013,+0000056,-0000093,+0004159,-0000796,+0000470,-0002334,14:57:48.895562
0.288663,+0000008,-0000012,-0000008,+0000054,-0000101,+0004156,-0000790,+0000480,-0002317,14:57:48.895562
0.288996,+0000013,-0000019,-0000005,+0000060,-0000086,+0004150,-0000790,+0000480,-0002317,14:57:48.895562
0.289329,+0000033,-0000048,-0000007,+0000045,-0000075,+0004159,-0000790,+0000480,-0002317,14:57:48.895562
0.289662,+0000017,-0000028,-0000015,+0000049,-0000074,+0004157,-0000798,+0000470,-0002322,14:57:48.895562
0.289995,+0000010,-0000015,-0000018,+0000060,-0000095,+0004148,-0000798,+0000470,-0002322,14:57:48.895562
0.290328,+0000010,-0000022,+0000005,+0000039,-0000077,+0004152,-0000798,+0000470,-0002322,14:57:48.897559
0.290661,+0000011,-0000019,-0000010,+0000058,-0000077,+0004156,-0000788,+0000478,-0002324,14:57:48.897559
0.290994,+0000007,-0000031,+0000001,+0000037,-0000092,+0004145,-0000788,+0000478,-0002324,14:57:48.897559
0.291327,+0000026,-0000031,-0000013,+0000040,-0000094,+0004150,-0000788,+0000478,-0002324,14:57:48.897559
0.291660,+0000017,-0000021,-0000007,+0000066,-0000095,+0004146,-0000770,+0000470,-0002320,14:57:48.897559
0.291993,-0000006,-0000013,-0000008,+0000058,-0000077,+0004146,-0000770,+0000470,-0002320,14:57:48.898560
0.292326,+0000025,-0000008,-0000010,+0000040,-0000086,+0004143,-0000770,+0000470,-0002320,14:57:48.898560
0.292659,-0000004,-0000019,-0000002,+0000055,-0000086,+0004162,-0000784,+0000474,-0002300,14:57:48.898560
0.292992,+0000016,-0000029,-0000005,+0000043,-0000098,+0004162,-0000784,+0000474,-0002300,14:57:48.898560
0.293327,+0000025,-0000016,-0000008,+0000065,-0000078,+0004162,-0000784,+0000474,-0002300,14:57:48.923773
0.293658,+0000007,+0000003,-0000004,+0000049,-0000089,+0004137,-0000782,+0000474,-0002347,14:57:48.923773
0.293995,+0000008,-0000008,-0000007,+0000035,-0000098,+0004153,-0000782,+0000474,-0002347,14:57:48.923773
0.294607,+0000028,-0000048,-0000010,+0000046,-0000079,+0004150,-0000782,+0000474,-0002347,14:57:48.924774
0.294823,-0000004,-0000002,-0000004,+0000061,-0000067,+0004150,-0000784,+0000472,-0002309,14:57:48.924774
0.295175,+0000014,-0000027,-0000016,+0000030,-0000080,+0004145,-0000784,+0000472,-0002309,14:57:48.924774
0.295363,+0000007,-0000019,-0000015,+0000061,-0000103,+0004145,-0000784,+0000472,-0002309,14:57:48.924774
0.295660,+0000022,-0000023,-0000005,+0000058,-0000109,+0004146,-0000802,+0000474,-0002326,14:57:48.924774
0.295995,+0000019,-0000027,-0000008,+0000052,-0000080,+0004145,-0000802,+0000474,-0002326,14:57:48.924774
0.296323,+0000018,-0000031,-0000007,+0000060,-0000081,+0004150,-0000802,+0000474,-0002326,14:57:48.924774
0.296655,+0000016,-0000024,-0000024,+0000038,-0000095,+0004144,-0000790,+0000476,-0002342,14:57:48.924774
0.296988,+0000028,-0000028,-0000002,+0000054,-0000090,+0004147,-0000790,+0000476,-0002342,14:57:48.925774
0.297321,+0000010,-0000026,-0000021,+0000051,-0000105,+0004147,-0000790,+0000476,-0002342,14:57:48.925774
0.297654,+0000025,-0000026,+0000000,+0000039,-0000093,+0004159,-0000792,+0000466,-0002314,14:57:48.925774
0.297987,+0000003,-0000027,-0000013,+0000048,-0000094,+0004140,-0000792,+0000466,-0002314,14:57:48.925774
0.298320,+0000013,+0000001,-0000016,+0000028,-0000087,+0004154,-0000792,+0000466,-0002314,14:57:48.925774
0.298653,+0000010,-0000024,-0000005,+0000052,-0000085,+0004149,-0000790,+0000480,-0002311,14:57:48.925774
0.298986,+0000024,-0000037,-0000015,+0000045,-0000108,+0004138,-0000790,+0000480,-0002311,14:57:48.925774
0.299319,+0000013,-0000032,-0000008,+0000036,-0000081,+0004164,-0000790,+0000480,-0002311,14:57:48.925774
0.299652,+0000024,-0000026,-0000011,+0000046,-0000096,+0004166,-0000786,+0000480,-0002327,14:57:48.925774
0.299985,+0000002,-0000020,-0000010,+0000076,-0000110,+0004167,-0000786,+0000480,-0002327,14:57:48.925774
0.300318,+0000010,-0000015,-0000002,+0000054,-0000093,+0004159,-0000786,+0000480,-0002327,14:57:48.925774
0.300651,+0000020,-0000016,-0000011,+0000047,-0000076,+0004170,-0000776,+0000476,-0002315,14:57:48.925774
0.300984,+0000019,-0000040,-0000008,+0000044,-0000099,+0004161,-0000776,+0000476,-0002315,14:57:48.925774
0.301317,+0000016,-0000025,-0000002,+0000055,-0000105,+0004169,-0000776,+0000476,-0002315,14:57:48.925774
0.301650,+0000008,-0000029,-0000026,+0000050,-0000089,+0004161,-0000788,+0000476,-0002316,14:57:48.925774
0.301983,+0000006,+0000001,-0000011,+0000059,-0000103,+0004168,-0000788,+0000476,-0002316,14:57:48.925774
0.302316,+0000006,-0000020,-0000002,+0000039,-0000102,+0004159,-0000788,+0000476,-0002316,14:57:48.925774
0.302649,+0000011,-0000024,-0000002,+0000051,-0000095,+0004157,-0000794,+0000468,-0002331,14:57:48.925774
0.302982,+0000035,-0000031,-0000015,+0000036,-0000095,+0004137,-0000794,+0000468,-0002331,14:57:48.925774
0.303315,+0000021,-0000032,-0000011,+0000061,-0000089,+0004140,-0000794,+0000468,-0002331,14:57:48.925774
0.303648,+0000019,-0000024,-0000004,+0000050,-0000102,+0004154,-0000784,+0000468,-0002308,14:57:48.925774
0.303994,-0000001,-0000007,-0000021,+0000054,-0000084,+0004141,-0000784,+0000468,-0002308,14:57:48.925774
0.304314,+0000019,-0000026,-0000003,+0000053,-0000083,+0004144,-0000784,+0000468,-0002308,14:57:48.925774
0.304647,+0000017,-0000045,-0000016,+0000072,-0000085,+0004150,-0000784,+0000474,-0002309,14:57:48.925774
0.304981,+0000024,-0000029,-0000007,+0000050,-0000088,+0004153,-0000784,+0000474,-0002309,14:57:48.925774
0.305313,+0000018,-0000010,-0000003,+0000057,-0000098,+0004149,-0000784,+0000474,-0002309,14:57:48.925774
0.305646,+0000002,-0000023,-0000008,+0000043,-0000086,+0004153,-0000782,+0000472,-0002327,14:57:48.925774
0.305992,+0000013,-0000007,-0000007,+0000034,-0000095,+0004134,-0000782,+0000472,-0002327,14:57:48.925774
0.306312,+0000007,-0000016,-0000012,+0000039,-0000074,+0004177,-0000782,+0000472,-0002327,14:57:48.925774
0.306645,+0000019,-0000044,-0000007,+0000050,-0000086,+0004148,-0000770,+0000482,-0002344,14:57:48.925774
0.306978,+0000027,-0000039,-0000007,+0000052,-0000094,+0004172,-0000770,+0000482,-0002344,14:57:48.925774
0.307311,+0000021,-0000026,-0000016,+0000046,-0000090,+0004146,-0000770,+0000482,-0002344,14:57:48.925774
0.307644,+0000002,-0000026,+0000000,+0000046,-0000089,+0004155,-0000788,+0000482,-0002333,14:57:48.928774
0.308089,+0000010,-0000020,-0000010,+0000058,-0000071,+0004177,-0000788,+0000482,-0002333,14:57:48.928774
0.308317,+0000002,-0000020,-0000010,+0000058,-0000103,+0004148,-0000788,+0000482,-0002333,14:57:48.928774
0.308647,+0000014,-0000015,-0000010,+0000047,-0000079,+0004149,-0000776,+0000472,-0002322,14:57:48.928774
0.308987,+0000011,-0000005,-0000005,+0000048,-0000113,+0004164,-0000776,+0000472,-0002322,14:57:48.928774
0.309311,+0000005,-0000011,-0000008,+0000037,-0000087,+0004165,-0000776,+0000472,-0002322,14:57:48.928774
0.309642,+0000011,-0000003,-0000010,+0000057,-0000062,+0004154,-0000800,+0000474,-0002317,14:57:48.929774
0.309977,+0000008,-0000015,-0000008,+0000057,-0000083,+0004153,-0000800,+0000474,-0002317,14:57:48.929774
0.310308,+0000013,-0000021,-0000004,+0000035,-0000089,+0004161,-0000800,+0000474,-0002317,14:57:48.929774
0.310642,+0000031,-0000034,-0000018,+0000037,-0000097,+0004166,-0000796,+0000480,-0002311,14:57:48.929774
0.310975,+0000035,-0000036,-0000013,+0000043,-0000092,+0004149,-0000796,+0000480,-0002311,14:57:48.929774
0.311307,+0000003,-0000030,-0000001,+0000042,-0000073,+0004167,-0000796,+0000480,-0002311,14:57:48.929774
0.311640,+0000014,-0000015,-0000023,+0000052,-0000093,+0004151,-0000792,+0000484,-0002308,14:57:48.929774
0.311974,+0000000,-0000018,-0000010,+0000055,-0000078,+0004148,-0000792,+0000484,-0002308,14:57:48.929774
0.312309,+0000002,-0000013,-0000002,+0000054,-0000084,+0004160,-0000792,+0000484,-0002308,14:57:48.929774
0.312639,+0000032,-0000039,-0000013,+0000046,-0000078,+0004162,-0000790,+0000468,-0002316,14:57:48.929774
0.312972,+0000017,-0000039,-0000008,+0000039,-0000076,+0004181,-0000790,+0000468,-0002316,14:57:48.929774
0.313305,+0000016,-0000018,-0000013,+0000035,-0000093,+0004152,-0000790,+0000468,-0002316,14:57:48.929774
0.313638,+0000006,-0000015,-0000010,+0000027,-0000104,+0004157,-0000786,+0000468,-0002346,14:57:48.929774
0.313971,-0000003,-0000005,+0000000,+0000057,-0000085,+0004144,-0000786,+0000468,-0002346,14:57:48.929774
0.314304,+0000027,-0000032,-0000006,+0000052,-0000102,+0004149,-0000786,+0000468,-0002346,14:57:48.929774
0.314637,+0000027,-0000031,-0000011,+0000059,-0000097,+0004185,-0000800,+0000488,-0002318,14:57:48.929774
0.314970,+0000013,-0000035,-0000008,+0000051,-0000104,+0004157,-0000800,+0000488,-0002318,14:57:48.929774
0.315303,+0000009,-0000018,-0000011,+0000026,-0000075,+0004152,-0000800,+0000488,-0002318,14:57:48.929774
0.315636,+0000010,+0000000,+0000001,+0000043,-0000082,+0004128,-0000798,+0000486,-0002346,14:57:48.929774
0.315969,+0000007,-0000024,-0000010,+0000048,-0000066,+0004138,-0000798,+0000486,-0002346,14:57:48.929774
0.316302,+0000029,-0000034,-0000018,+0000041,-0000080,+0004182,-0000798,+0000486,-0002346,14:57:48.929774
0.316635,+0000018,-0000035,-0000005,+0000043,-0000097,+0004165,-0000802,+0000490,-0002344,14:57:48.933773
0.316968,+0000016,-0000040,-0000012,+0000042,-0000105,+0004160,-0000802,+0000490,-0002344,14:57:48.933773
0.317301,+0000008,-0000013,-0000003,+0000055,-0000099,+0004158,-0000802,+0000490,-0002344,14:57:48.933773
0.317634,+0000003,-0000012,-0000011,+0000062,-0000066,+0004168,-0000792,+0000478,-0002302,14:57:48.933773
0.317967,+0000011,-0000021,-0000008,+0000051,-0000076,+0004150,-0000792,+0000478,-0002302,14:57:48.934774
0.318300,+0000008,-0000026,-0000011,+0000040,-0000084,+0004145,-0000792,+0000478,-0002302,14:57:48.934774
0.318633,+0000022,-0000027,-0000010,+0000039,-0000082,+0004153,-0000810,+0000480,-0002329,14:57:48.934774
0.318966,+0000021,-0000016,-0000019,+0000037,-0000099,+0004155,-0000810,+0000480,-0002329,14:57:48.934774
0.319299,-0000005,-0000020,-0000002,+0000051,-0000079,+0004151,-0000810,+0000480,-0002329,14:57:48.934774
0.319632,+0000008,-0000019,-0000005,+0000059,-0000086,+0004153,-0000788,+0000472,-0002339,14:57:48.934774
0.319965,+0000010,-0000024,-0000007,+0000059,-0000094,+0004146,-0000788,+0000472,-0002339,14:57:48.934774
0.320298,+0000013,-0000030,-0000011,+0000054,-0000082,+0004161,-0000788,+0000472,-0002339,14:57:48.934774
0.320631,+0000024,-0000026,-0000019,+0000036,-0000098,+0004135,-0000790,+0000476,-0002329,14:57:48.934774
0.320964,-0000004,-0000015,+0000000,+0000058,-0000086,+0004154,-0000790,+0000476,-0002329,14:57:48.934774
0.321297,+0000007,-0000023,-0000011,+0000068,-0000082,+0004138,-0000790,+0000476,-0002329,14:57:48.934774
0.321630,+0000017,-0000019,-0000013,+0000031,-0000095,+0004139,-0000774,+0000486,-0002315,14:57:48.935776
0.321963,+0000002,-0000018,-0000002,+0000045,-0000091,+0004147,-0000774,+0000486,-0002315,14:57:48.935776
0.322296,+0000016,-0000037,-0000011,+0000051,-0000090,+0004134,-0000774,+0000486,-0002315,14:57:48.937292
0.322629,+0000008,-0000023,-0000005,+0000061,-0000095,+0004143,-0000766,+0000472,-0002321,14:57:48.937292
0.322962,+0000018,-0000026,+0000004,+0000041,-0000086,+0004162,-0000766,+0000472,-0002321,14:57:48.937292
0.323295,+0000010,-0000023,-0000018,+0000048,-0000088,+0004157,-0000766,+0000472,-0002321,14:57:48.937292
0.323628,-0000001,-0000018,-0000007,+0000056,-0000099,+0004157,-0000794,+0000488,-0002290,14:57:48.937292
0.323961,+0000018,-0000023,-0000008,+0000044,-0000101,+0004143,-0000794,+0000488,-0002290,14:57:48.937292
0.324294,+0000024,-0000042,-0000005,+0000053,-0000101,+0004157,-0000794,+0000488,-0002290,14:57:48.937292
0.324627,+0000022,-0000039,-0000007,+0000049,-0000098,+0004156,-0000790,+0000482,-0002316,14:57:48.937292
0.324960,+0000010,-0000014,-0000016,+0000047,-0000071,+0004158,-0000790,+0000482,-0002316,14:57:48.937292
0.325293,+0000016,-0000026,-0000007,+0000050,-0000095,+0004165,-0000790,+0000482,-0002316,14:57:48.937292
0.325626,+0000000,+0000001,+0000003,+0000041,-0000096,+0004159,-0000802,+0000482,-0002316,14:57:48.937292
0.325959,+0000003,-0000004,-0000002,+0000030,-0000097,+0004148,-0000802,+0000482,-0002316,14:57:48.937292
0.326292,+0000030,-0000043,-0000010,+0000034,-0000080,+0004150,-0000802,+0000482,-0002316,14:57:48.937292
0.326625,+0000017,-0000029,-0000016,+0000051,-0000088,+0004150,-0000800,+0000466,-0002332,14:57:48.937292
0.326958,+0000008,-0000022,-0000005,+0000052,-0000087,+0004141,-0000800,+0000466,-0002332,14:57:48.937292
0.327291,+0000017,-0000024,-0000012,+0000047,-0000096,+0004159,-0000800,+0000466,-0002332,14:57:48.937292
0.327624,+0000002,-0000010,-0000008,+0000042,-0000085,+0004160,-0000800,+0000482,-0002317,14:57:48.937292
0.327957,+0000024,-0000039,-0000004,+0000043,-0000088,+0004148,-0000800,+0000482,-0002317,14:57:48.937292
0.328290,+0000026,-0000032,-0000004,+0000044,-0000081,+0004137,-0000800,+0000482,-0002317,14:57:48.937292
0.328623,+0000014,-0000034,-0000016,+0000037,-0000086,+0004136,-0000796,+0000482,-0002321,14:57:48.937292
0.328956,+0000016,-0000026,-0000008,+0000046,-0000074,+0004160,-0000796,+0000482,-0002321,14:57:48.939308
0.329289,+0000006,-0000004,-0000010,+0000044,-0000089,+0004157,-0000796,+0000482,-0002321,14:57:48.939308
0.329622,+0000002,-0000016,+0000001,+0000066,-0000096,+0004155,-0000804,+0000472,-0002319,14:57:48.939308
0.329955,+0000017,-0000035,-0000008,+0000052,-0000091,+0004156,-0000804,+0000472,-0002319,14:57:48.939308
0.330288,+0000010,-0000044,-0000010,+0000057,-0000101,+0004150,-0000804,+0000472,-0002319,14:57:48.939308
0.330621,+0000030,-0000034,-0000015,+0000036,-0000080,+0004155,-0000792,+0000478,-0002331,14:57:48.939308
0.330954,+0000022,-0000016,+0000001,+0000049,-0000081,+0004172,-0000792,+0000478,-0002331,14:57:48.939308
0.331287,+0000003,-0000029,-0000024,+0000046,-0000062,+0004138,-0000792,+0000478,-0002331,14:57:48.939308
0.331620,+0000008,-0000010,+0000009,+0000046,-0000096,+0004164,-0000798,+0000464,-0002356,14:57:48.939308
0.331953,+0000024,-0000026,-0000010,+0000052,-0000087,+0004149,-0000798,+0000464,-0002356,14:57:48.939308
0.332286,+0000032,-0000039,-0000018,+0000047,-0000077,+0004140,-0000798,+0000464,-0002356,14:57:48.939308
0.332619,+0000024,-0000015,-0000010,+0000048,-0000085,+0004159,-0000804,+0000468,-0002339,14:57:48.939308
0.332952,+0000011,-0000015,-0000008,+0000052,-0000093,+0004163,-0000804,+0000468,-0002339,14:57:48.939308
0.333285,+0000010,-0000011,-0000005,+0000028,-0000075,+0004169,-0000804,+0000468,-0002339,14:57:48.939308
0.333618,+0000019,-0000026,-0000010,+0000055,-0000080,+0004156,-0000806,+0000468,-0002334,14:57:48.939308
0.333951,+0000013,-0000026,-0000002,+0000054,-0000090,+0004154,-0000806,+0000468,-0002334,14:57:48.939308
0.334284,+0000019,-0000018,+0000000,+0000050,-0000077,+0004141,-0000806,+0000468,-0002334,14:57:48.939308
0.334619,+0000005,-0000011,-0000007,+0000058,-0000090,+0004157,-0000786,+0000462,-0002340,14:57:48.939308
0.334950,+0000011,-0000021,-0000008,+0000047,-0000090,+0004153,-0000786,+0000462,-0002340,14:57:48.939308
0.335283,+0000011,-0000010,+0000000,+0000048,-0000082,+0004146,-0000786,+0000462,-0002340,14:57:48.939308
0.335616,+0000014,-0000024,-0000015,+0000054,-0000100,+0004142,-0000782,+0000468,-0002345,14:57:48.939308
0.335949,+0000014,-0000032,+0000002,+0000050,-0000089,+0004143,-0000782,+0000468,-0002345,14:57:48.939308
0.336282,+0000025,-0000040,-0000018,+0000051,-0000088,+0004146,-0000782,+0000468,-0002345,14:57:48.939308
0.336615,+0000011,-0000028,-0000005,+0000041,-0000091,+0004154,-0000800,+0000464,-0002353,14:57:48.939308
0.336948,+0000013,-0000023,-0000013,+0000027,-0000091,+0004146,-0000800,+0000464,-0002353,14:57:48.939308
0.337281,+0000008,-0000007,-0000006,+0000055,-0000078,+0004160,-0000800,+0000464,-0002353,14:57:48.940308
0.337614,+0000008,-0000015,-0000013,+0000055,-0000088,+0004157,-0000790,+0000468,-0002347,14:57:48.940308
0.337947,+0000014,-0000030,-0000016,+0000048,-0000085,+0004148,-0000790,+0000468,-0002347,14:57:48.940308
0.338280,+0000022,-0000027,-0000010,+0000033,-0000085,+0004159,-0000790,+0000468,-0002347,14:57:48.940308
0.338613,+0000011,-0000024,-0000003,+0000045,-0000077,+0004135,-0000810,+0000474,-0002327,14:57:48.941307
0.338946,+0000007,-0000021,-0000018,+0000033,-0000092,+0004173,-0000810,+0000474,-0002327,14:57:48.941307
0.339279,-0000001,+0000001,-0000005,+0000047,-0000093,+0004146,-0000810,+0000474,-0002327,14:57:48.941307
0.339612,+0000011,-0000010,-0000005,+0000048,-0000079,+0004160,-0000792,+0000472,-0002321,14:57:48.941307
0.339945,+0000013,-0000037,-0000010,+0000041,-0000106,+0004154,-0000792,+0000472,-0002321,14:57:48.941307
0.340278,+0000033,-0000035,-0000016,+0000054,-0000087,+0004140,-0000792,+0000472,-0002321,14:57:48.941307
0.340611,+0000016,-0000032,-0000005,+0000066,-0000091,+0004144,-0000796,+0000472,-0002335,14:57:48.941307
0.340944,+0000011,-0000010,-0000007,+0000046,-0000091,+0004144,-0000796,+0000472,-0002335,14:57:48.941307
0.341277,+0000003,+0000001,+0000000,+0000043,-0000095,+0004142,-0000796,+0000472,-0002335,14:57:48.941307
0.341610,+0000022,-0000039,-0000013,+0000043,-0000092,+0004138,-0000804,+0000462,-0002328,14:57:48.941307
0.341943,+0000027,-0000027,-0000008,+0000062,-0000091,+0004168,-0000804,+0000462,-0002328,14:57:48.941307
0.342276,+0000007,-0000034,-0000013,+0000042,-0000082,+0004163,-0000804,+0000462,-0002328,14:57:48.941307
0.342609,+0000027,-0000030,-0000008,+0000051,-0000087,+0004155,-0000792,+0000474,-0002330,14:57:48.941307
0.342942,+0000006,+0000003,-0000004,+0000034,-0000103,+0004164,-0000792,+0000474,-0002330,14:57:48.941307
0.343278,+0000000,-0000023,-0000002,+0000056,-0000040,+0004141,-0000792,+0000474,-0002330,14:57:48.989685
0.343608,+0000030,-0000037,-0000005,+0000045,-0000086,+0004144,-0000788,+0000478,-0002323,14:57:48.989685
0.343945,+0000014,-0000034,-0000007,+0000052,-0000094,+0004156,-0000788,+0000478,-0002323,14:57:48.989685
0.344600,+0000014,-0000015,-0000007,+0000074,-0000086,+0004139,-0000788,+0000478,-0002323,14:57:48.989685
0.344975,+0000007,-0000011,-0000002,+0000063,-0000079,+0004147,-0000774,+0000472,-0002321,14:57:48.989685
0.345461,+0000025,-0000034,-0000013,+0000036,-0000085,+0004141,-0000774,+0000472,-0002321,14:57:48.989685
0.345654,+0000025,-0000034,-0000013,+0000036,-0000094,+0004155,-0000774,+0000472,-0002321,14:57:48.989685
0.345944,+0000008,-0000022,-0000002,+0000029,-0000110,+0004148,-0000804,+0000458,-0002335,14:57:48.989685
0.346426,+0000002,-0000010,-0000012,+0000051,-0000083,+0004153,-0000804,+0000458,-0002335,14:57:48.989685
0.346750,+0000027,-0000040,-0000005,+0000033,-0000084,+0004158,-0000804,+0000458,-0002335,14:57:48.989685
0.346945,+0000003,-0000027,-0000008,+0000047,-0000082,+0004143,-0000784,+0000470,-0002330,14:57:48.989685
0.347271,+0000014,-0000028,+0000000,+0000034,-0000080,+0004151,-0000784,+0000470,-0002330,14:57:48.989685
0.347605,+0000011,-0000022,-0000010,+0000041,-0000097,+0004159,-0000784,+0000470,-0002330,14:57:48.989685
0.347939,+0000019,-0000037,-0000019,+0000038,-0000078,+0004158,-0000802,+0000470,-0002309,14:57:48.989685
0.348271,+0000020,-0000018,-0000011,+0000037,-0000083,+0004138,-0000802,+0000470,-0002309,14:57:48.989685
0.348603,+0000027,-0000016,-0000021,+0000044,-0000081,+0004155,-0000802,+0000470,-0002309,14:57:48.989685
0.348937,+0000006,-0000007,+0000001,+0000050,-0000070,+0004154,-0000788,+0000468,-0002312,14:57:48.989685
0.349269,+0000009,-0000021,-0000014,+0000046,-0000091,+0004164,-0000788,+0000468,-0002312,14:57:48.989685
0.349602,+0000014,-0000024,+0000003,+0000050,-0000086,+0004158,-0000788,+0000468,-0002312,14:57:48.989685
0.349936,+0000022,-0000027,-0000007,+0000051,-0000079,+0004154,-0000794,+0000480,-0002323,14:57:48.989685
0.350268,+0000024,-0000039,-0000013,+0000062,-0000106,+0004160,-0000794,+0000480,-0002323,14:57:48.989685
0.350603,+0000003,-0000011,-0000016,+0000050,-0000088,+0004153,-0000794,+0000480,-0002323,14:57:48.989685
0.350937,-0000001,-0000005,-0000005,+0000055,-0000093,+0004157,-0000802,+0000478,-0002317,14:57:48.989685
0.351268,+0000013,-0000023,-0000009,+0000028,-0000080,+0004147,-0000802,+0000478,-0002317,14:57:48.989685
0.351600,+0000007,-0000019,+0000003,+0000047,-0000076,+0004153,-0000802,+0000478,-0002317,14:57:48.989685
0.351933,+0000028,-0000032,-0000023,+0000070,-0000086,+0004170,-0000804,+0000474,-0002322,14:57:48.989685
0.352266,+0000017,-0000016,+0000006,+0000034,-0000096,+0004156,-0000804,+0000474,-0002322,14:57:48.989685
0.352599,+0000002,-0000012,-0000019,+0000052,-0000083,+0004163,-0000804,+0000474,-0002322,14:57:48.989685
0.352932,+0000004,-0000010,-0000010,+0000034,-0000084,+0004137,-0000786,+0000486,-0002321,14:57:48.989685
0.353265,+0000016,-0000015,-0000005,+0000051,-0000092,+0004132,-0000786,+0000486,-0002321,14:57:48.989685
0.353598,+0000021,-0000040,-0000010,+0000052,-0000085,+0004129,-0000786,+0000486,-0002321,14:57:48.989685
0.353931,+0000016,-0000023,-0000002,+0000043,-0000088,+0004166,-0000794,+0000486,-0002338,14:57:48.989685
0.354264,+0000019,-0000029,-0000023,+0000046,-0000092,+0004149,-0000794,+0000486,-0002338,14:57:48.989685
0.354597,+0000003,-0000015,-0000001,+0000050,-0000107,+0004146,-0000794,+0000486,-0002338,14:57:48.989685
0.354930,+0000005,-0000008,+0000004,+0000056,-0000094,+0004158,-0000794,+0000492,-0002320,14:57:48.989685
0.355263,+0000022,-0000029,-0000013,+0000060,-0000095,+0004141,-0000794,+0000492,-0002320,14:57:48.989685
0.355596,+0000021,-0000026,-0000019,+0000062,-0000084,+0004144,-0000794,+0000492,-0002320,14:57:48.989685
0.355929,+0000013,-0000043,-0000002,+0000050,-0000096,+0004163,-0000806,+0000490,-0002316,14:57:48.989685
0.356262,+0000013,-0000022,-0000013,+0000047,-0000077,+0004160,-0000806,+0000490,-0002316,14:57:48.989685
0.356595,-0000006,-0000011,-0000007,+0000052,-0000082,+0004164,-0000806,+0000490,-0002316,14:57:48.990686
0.356928,+0000003,-0000005,+0000000,+0000066,-0000079,+0004162,-0000790,+0000476,-0002301,14:57:48.990686
0.357261,+0000010,-0000020,-0000010,+0000050,-0000099,+0004133,-0000790,+0000476,-0002301,14:57:48.990686
0.357594,+0000027,-0000044,-0000007,+0000053,-0000095,+0004151,-0000790,+0000476,-0002301,14:57:48.990686
0.357927,+0000015,-0000024,-0000005,+0000045,-0000088,+0004154,-0000776,+0000484,-0002334,14:57:48.990686
0.358260,+0000003,-0000003,-0000008,+0000032,-0000102,+0004160,-0000776,+0000484,-0002334,14:57:48.990686
0.358593,+0000005,-0000021,+0000000,+0000051,-0000077,+0004147,-0000776,+0000484,-0002334,14:57:48.991686
0.358926,+0000021,-0000035,-0000007,+0000066,-0000078,+0004155,-0000804,+0000498,-0002337,14:57:48.991686
0.359259,+0000011,-0000021,-0000011,+0000049,-0000110,+0004159,-0000804,+0000498,-0002337,14:57:48.991686
0.359592,+0000016,-0000042,-0000002,+0000050,-0000091,+0004144,-0000804,+0000498,-0002337,14:57:48.991686
0.359925,+0000014,-0000026,-0000011,+0000042,-0000098,+0004161,-0000802,+0000472,-0002342,14:57:48.991686
0.360258,+0000017,-0000010,-0000005,+0000051,-0000097,+0004155,-0000802,+0000472,-0002342,14:57:48.991686
0.360591,-0000002,-0000015,-0000005,+0000048,-0000090,+0004142,-0000802,+0000472,-0002342,14:57:48.991686
0.360924,+0000025,-0000027,-0000012,+0000042,-0000090,+0004160,-0000790,+0000478,-0002319,14:57:48.991686
0.361257,+0000014,-0000032,+0000001,+0000028,-0000074,+0004144,-0000790,+0000478,-0002319,14:57:48.991686
0.361590,+0000030,-0000012,+0000000,+0000050,-0000103,+0004141,-0000790,+0000478,-0002319,14:57:48.994686
0.361923,+0000021,-0000029,-0000015,+0000039,-0000092,+0004156,-0000790,+0000488,-0002312,14:57:48.994686
0.362256,+0000022,-0000008,-0000007,+0000051,-0000086,+0004136,-0000790,+0000488,-0002312,14:57:48.994686
0.362589,-0000003,-0000013,-0000005,+0000052,-0000118,+0004136,-0000790,+0000488,-0002312,14:57:48.994686
0.362922,+0000011,-0000023,-0000010,+0000076,-0000087,+0004166,-0000776,+0000490,-0002303,14:57:48.994686
0.363255,+0000011,-0000021,-0000004,+0000057,-0000098,+0004145,-0000776,+0000490,-0002303,14:57:48.994686
0.363588,+0000024,-0000027,-0000007,+0000035,-0000088,+0004146,-0000776,+0000490,-0002303,14:57:48.994686
0.363921,+0000019,-0000026,-0000010,+0000040,-0000091,+0004145,-0000784,+0000472,-0002330,14:57:48.994686
0.364254,+0000010,-0000026,-0000007,+0000058,-0000106,+0004168,-0000784,+0000472,-0002330,14:57:48.994686
0.364587,-0000003,-0000005,-0000002,+0000044,-0000070,+0004162,-0000784,+0000472,-0002330,14:57:48.994686
0.364920,+0000021,-0000021,-0000005,+0000055,-0000089,+0004147,-0000772,+0000464,-0002313,14:57:48.994686
0.365253,+0000035,-0000047,-0000008,+0000064,-0000090,+0004164,-0000772,+0000464,-0002313,14:57:48.994686
0.365586,+0000017,-0000013,-0000010,+0000056,-0000088,+0004144,-0000772,+0000464,-0002313,14:57:48.994686
0.365919,+0000016,-0000026,-0000021,+0000052,-0000088,+0004124,-0000790,+0000486,-0002317,14:57:48.994686
0.366252,-0000001,-0000015,-0000007,+0000038,-0000076,+0004152,-0000790,+0000486,-0002317,14:57:48.994686
0.366585,+0000018,-0000015,-0000004,+0000056,-0000090,+0004149,-0000790,+0000486,-0002317,14:57:48.994686
0.366918,+0000018,-0000026,-0000007,+0000070,-0000090,+0004166,-0000810,+0000470,-0002329,14:57:48.994686
0.367251,+0000011,-0000026,-0000005,+0000054,-0000103,+0004155,-0000810,+0000470,-0002329,14:57:48.994686
0.367584,+0000016,-0000039,-0000010,+0000041,-0000077,+0004159,-0000810,+0000470,-0002329,14:57:48.994686
0.367917,+0000018,-0000014,-0000008,+0000048,-0000096,+0004157,-0000780,+0000482,-0002304,14:57:48.995685
0.368250,+0000010,-0000018,-0000010,+0000053,-0000096,+0004157,-0000780,+0000482,-0002304,14:57:48.995685
0.368583,+0000005,-0000005,-0000002,+0000056,-0000075,+0004136,-0000780,+0000482,-0002304,14:57:48.995685
0.368916,+0000010,-0000023,+0000000,+0000050,-0000095,+0004157,-0000798,+0000488,-0002317,14:57:48.995685
0.369249,+0000015,-0000039,-0000006,+0000048,-0000095,+0004143,-0000798,+0000488,-0002317,14:57:48.995685
0.369582,+0000028,-0000041,-0000016,+0000052,-0000088,+0004136,-0000798,+0000488,-0002317,14:57:48.995685
0.369915,+0000005,-0000026,-0000014,+0000036,-0000092,+0004143,-0000788,+0000470,-0002300,14:57:48.995685
0.370248,+0000010,-0000011,-0000007,+0000051,-0000096,+0004158,-0000788,+0000470,-0002300,14:57:48.995685
0.370581,+0000005,-0000020,-0000002,+0000056,-0000089,+0004134,-0000788,+0000470,-0002300,14:57:48.995685
0.370914,+0000013,-0000026,-0000008,+0000032,-0000086,+0004141,-0000794,+0000470,-0002325,14:57:48.995685
0.371247,+0000029,-0000042,-0000023,+0000048,-0000104,+0004169,-0000794,+0000470,-0002325,14:57:48.995685
0.371580,+0000030,-0000034,-0000007,+0000052,-0000078,+0004173,-0000794,+0000470,-0002325,14:57:48.995685
0.371913,+0000005,-0000016,-0000005,+0000038,-0000095,+0004150,-0000792,+0000484,-0002326,14:57:48.995685
0.372246,+0000005,-0000019,-0000008,+0000038,-0000095,+0004146,-0000792,+0000484,-0002326,14:57:48.995685
0.372579,+0000013,-0000021,-0000011,+0000051,-0000099,+0004136,-0000792,+0000484,-0002326,14:57:48.995685
0.372912,+0000022,-0000032,-0000016,+0000045,-0000116,+0004132,-0000782,+0000482,-0002334,14:57:48.995685
0.373245,+0000035,-0000032,-0000007,+0000062,-0000084,+0004145,-0000782,+0000482,-0002334,14:57:48.995685
0.373578,+0000014,-0000023,-0000011,+0000058,-0000093,+0004142,-0000782,+0000482,-0002334,14:57:48.996685
0.373911,-0000002,-0000015,-0000008,+0000052,-0000075,+0004151,-0000788,+0000472,-0002302,14:57:48.996685
0.374244,+0000017,-0000005,-0000005,+0000041,-0000091,+0004158,-0000788,+0000472,-0002302,14:57:48.996685
0.374577,+0000003,-0000021,-0000007,+0000070,-0000073,+0004153,-0000788,+0000472,-0002302,14:57:48.996685
0.374910,+0000024,-0000032,-0000004,+0000051,-0000100,+0004155,-0000796,+0000494,-0002321,14:57:48.996685
0.375243,+0000024,-0000020,-0000008,+0000028,-0000075,+0004149,-0000796,+0000494,-0002321,14:57:48.996685
0.375576,+0000003,-0000029,-0000007,+0000041,-0000089,+0004145,-0000796,+0000494,-0002321,14:57:48.999686
0.375909,+0000010,-0000020,-0000003,+0000029,-0000099,+0004146,-0000794,+0000474,-0002332,14:57:48.999686
0.376242,+0000009,-0000007,-0000010,+0000043,-0000081,+0004145,-0000794,+0000474,-0002332,14:57:48.999686
0.376575,-0000001,-0000024,+0000000,+0000051,-0000095,+0004141,-0000794,+0000474,-0002332,14:57:48.999686
0.376908,+0000022,-0000029,+0000001,+0000045,-0000088,+0004142,-0000802,+0000474,-0002327,14:57:48.999686
0.377241,+0000021,-0000029,-0000023,+0000040,-0000108,+0004162,-0000802,+0000474,-0002327,14:57:48.999686
